subindex	recordId	eventindex	Animacytype	CarrierType	CarriertypeNum	Stimulustype	StimulustypeNum	TypeNum	duration	ended_on	list	meta	panel1	response	root	scenario	sender	sender_id	sender_type	text	time_commit	time_end	time_render	time_run	time_show	time_switch	timestamp	url	
1	R_1mVPCuFCz0iSzaw	1	.	.	.	.	.	.	2.563819e+04	response	.	.	.	continue	.	.	Intro	0	html.Screen	.	2.635025e+04	2.634412e+04	6.892580e+02	6.980800e+02	7.059320e+02	2.636340e+04	2021-05-07T09:00:19.580Z	.	
1	R_1mVPCuFCz0iSzaw	2	animal	plain	1	plain animal	11	1	3.611628e+03	response	1	.	butterfly.jpg	0	butterfly.jpg	12	panel1	1_0_1	html.Screen	radient	3.097908e+04	3.097546e+04	2.734716e+04	2.734939e+04	2.736384e+04	3.098210e+04	2021-05-07T09:00:24.209Z	.	
1	R_1mVPCuFCz0iSzaw	3	animal	plain	1	plain animal	11	1	4.612068e+03	completion	1	.	butterfly.jpg	.	butterfly.jpg	12	Trial Sequence	1_0	flow.Sequence	radient	3.098020e+04	3.097546e+04	2.634672e+04	2.635052e+04	2.636340e+04	3.098210e+04	2021-05-07T09:00:24.210Z	.	
1	R_1mVPCuFCz0iSzaw	4	object	plain	1	plain object	13	3	1.677765e+03	response	1	.	drum_stick.jpg	1	drum_stick.jpg	21	panel1	1_1_1	html.Screen	great	3.366425e+04	3.366030e+04	3.196586e+04	3.196834e+04	3.198253e+04	3.366661e+04	2021-05-07T09:00:26.894Z	.	
1	R_1mVPCuFCz0iSzaw	5	object	plain	1	plain object	13	3	2.678205e+03	completion	1	.	drum_stick.jpg	.	drum_stick.jpg	21	Trial Sequence	1_1	flow.Sequence	great	3.366449e+04	3.366030e+04	3.096542e+04	3.098035e+04	3.098210e+04	3.366661e+04	2021-05-07T09:00:26.894Z	.	
1	R_1mVPCuFCz0iSzaw	6	object	label	3	label object	8	3	1.814740e+03	response	1	.	chair_l.jpg	1	chair_l.jpg	16	panel1	1_2_1	html.Screen	basic	3.648892e+04	3.648512e+04	3.465371e+04	3.465463e+04	3.467039e+04	3.650453e+04	2021-05-07T09:00:29.719Z	.	
1	R_1mVPCuFCz0iSzaw	7	object	label	3	label object	8	3	2.818516e+03	completion	1	.	chair_l.jpg	.	chair_l.jpg	16	Trial Sequence	1_2	flow.Sequence	basic	3.648910e+04	3.648512e+04	3.364993e+04	3.366466e+04	3.366661e+04	3.650453e+04	2021-05-07T09:00:29.719Z	.	
1	R_1mVPCuFCz0iSzaw	8	object	label	3	label object	8	3	1.553190e+03	response	1	.	axe_l.jpg	0	axe_l.jpg	5	panel1	1_3_1	html.Screen	ideal	3.906281e+04	3.905815e+04	3.748829e+04	3.749053e+04	3.750496e+04	3.907232e+04	2021-05-07T09:00:32.293Z	.	
1	R_1mVPCuFCz0iSzaw	9	object	label	3	label object	8	3	2.553630e+03	completion	1	.	axe_l.jpg	.	axe_l.jpg	5	Trial Sequence	1_3	flow.Sequence	ideal	3.906328e+04	3.905815e+04	3.648785e+04	3.648920e+04	3.650453e+04	3.907232e+04	2021-05-07T09:00:32.293Z	.	
1	R_1mVPCuFCz0iSzaw	10	object	label	3	label object	8	3	1.185164e+03	response	1	.	bishop_l.jpg	1	bishop_l.jpg	8	panel1	1_4_1	html.Screen	small	4.126152e+04	4.125792e+04	4.005609e+04	4.005761e+04	4.007276e+04	4.127329e+04	2021-05-07T09:00:34.491Z	.	
1	R_1mVPCuFCz0iSzaw	11	object	label	3	label object	8	3	2.185604e+03	completion	1	.	bishop_l.jpg	.	bishop_l.jpg	8	Trial Sequence	1_4	flow.Sequence	small	4.126181e+04	4.125792e+04	3.905565e+04	3.906342e+04	3.907232e+04	4.127329e+04	2021-05-07T09:00:34.491Z	.	
1	R_1mVPCuFCz0iSzaw	12	robot	label	3	label robot	10	5	1.283271e+03	response	1	.	industrial_robo_l.jpg	1	industrial_robo_l.jpg	24	panel1	1_5_1	html.Screen	impressive	4.361585e+04	4.355700e+04	4.225706e+04	4.225868e+04	4.227373e+04	4.362432e+04	2021-05-07T09:00:36.846Z	.	
1	R_1mVPCuFCz0iSzaw	13	robot	label	3	label robot	10	5	2.283711e+03	completion	1	.	industrial_robo_l.jpg	.	industrial_robo_l.jpg	24	Trial Sequence	1_5	flow.Sequence	impressive	4.361609e+04	4.355700e+04	4.125661e+04	4.126196e+04	4.127329e+04	4.362432e+04	2021-05-07T09:00:36.846Z	.	
1	R_1mVPCuFCz0iSzaw	14	plant	plain	1	plain plant	14	4	1.184047e+03	response	1	.	coral.jpg	0	coral.jpg	18	panel1	1_6_1	html.Screen	awesome	4.581206e+04	4.580881e+04	4.460809e+04	4.460898e+04	4.462476e+04	4.582397e+04	2021-05-07T09:00:39.042Z	.	
1	R_1mVPCuFCz0iSzaw	15	plant	plain	1	plain plant	14	4	2.184487e+03	completion	1	.	coral.jpg	.	coral.jpg	18	Trial Sequence	1_6	flow.Sequence	awesome	4.581225e+04	4.580881e+04	4.360765e+04	4.361628e+04	4.362432e+04	4.582397e+04	2021-05-07T09:00:39.042Z	.	
1	R_1mVPCuFCz0iSzaw	16	robot	label	3	label robot	10	5	1.279185e+03	response	1	.	asimov_l.jpg	0	asimov_l.jpg	3	panel1	1_7_1	html.Screen	handsome	4.810799e+04	4.810360e+04	4.680774e+04	4.680929e+04	4.682442e+04	4.812499e+04	2021-05-07T09:00:41.338Z	.	
1	R_1mVPCuFCz0iSzaw	17	robot	label	3	label robot	10	5	2.279625e+03	completion	1	.	asimov_l.jpg	.	asimov_l.jpg	3	Trial Sequence	1_7	flow.Sequence	handsome	4.810822e+04	4.810360e+04	4.580730e+04	4.581234e+04	4.582397e+04	4.812499e+04	2021-05-07T09:00:41.338Z	.	
1	R_1mVPCuFCz0iSzaw	18	robot	plain	1	plain robot	15	5	1.446243e+03	response	1	.	cute_robo.jpg	1	cute_robo.jpg	20	panel1	1_8_1	html.Screen	cute	5.062420e+04	5.057167e+04	4.910875e+04	4.911134e+04	4.912543e+04	5.062609e+04	2021-05-07T09:00:43.854Z	.	
1	R_1mVPCuFCz0iSzaw	19	robot	plain	1	plain robot	15	5	2.446683e+03	completion	1	.	cute_robo.jpg	.	cute_robo.jpg	20	Trial Sequence	1_8	flow.Sequence	cute	5.062451e+04	5.057167e+04	4.810831e+04	4.810835e+04	4.812499e+04	5.062609e+04	2021-05-07T09:00:43.854Z	.	
1	R_1mVPCuFCz0iSzaw	20	human	label	3	label human	7	2	1.156023e+03	response	1	.	small_boy_l.jpg	1	small_boy_l.jpg	39	panel1	1_9_1	html.Screen	ordinairy	5.278705e+04	5.278255e+04	5.160985e+04	5.161063e+04	5.162653e+04	5.279371e+04	2021-05-07T09:00:46.017Z	.	
1	R_1mVPCuFCz0iSzaw	21	human	label	3	label human	7	2	2.156463e+03	completion	1	.	small_boy_l.jpg	.	small_boy_l.jpg	39	Trial Sequence	1_9	flow.Sequence	ordinairy	5.278721e+04	5.278255e+04	5.060941e+04	5.062469e+04	5.062609e+04	5.279371e+04	2021-05-07T09:00:46.017Z	.	
1	R_1mVPCuFCz0iSzaw	22	object	label	3	label object	8	3	1.318268e+03	response	1	.	bank_l.jpg	1	bank_l.jpg	6	panel1	1_10_1	html.Screen	ordinary	5.511749e+04	5.511241e+04	5.377747e+04	5.377887e+04	5.379415e+04	5.513403e+04	2021-05-07T09:00:48.347Z	.	
1	R_1mVPCuFCz0iSzaw	23	object	label	3	label object	8	3	2.318708e+03	completion	1	.	bank_l.jpg	.	bank_l.jpg	6	Trial Sequence	1_10	flow.Sequence	ordinary	5.511770e+04	5.511241e+04	5.277703e+04	5.278730e+04	5.279371e+04	5.513403e+04	2021-05-07T09:00:48.347Z	.	
1	R_1mVPCuFCz0iSzaw	24	robot	balloon	2	balloon robot	5	5	3.057325e+03	response	1	.	square_robo_b.jpg	0	square_robo_b.jpg	43	panel1	1_11_1	html.Screen	okay	5.919581e+04	5.919179e+04	5.611779e+04	5.611889e+04	5.613446e+04	5.920248e+04	2021-05-07T09:00:52.426Z	.	
1	R_1mVPCuFCz0iSzaw	25	robot	balloon	2	balloon robot	5	5	4.057765e+03	completion	1	.	square_robo_b.jpg	.	square_robo_b.jpg	43	Trial Sequence	1_11	flow.Sequence	okay	5.919609e+04	5.919179e+04	5.511735e+04	5.511783e+04	5.513403e+04	5.920248e+04	2021-05-07T09:00:52.426Z	.	
1	R_1mVPCuFCz0iSzaw	26	animal	balloon	2	balloon animal	1	1	1.084169e+03	response	1	.	camel_b.jpg	0	camel_b.jpg	14	panel1	1_12_1	html.Screen	extraordinairy	6.129147e+04	6.128709e+04	6.018625e+04	6.018877e+04	6.020292e+04	6.130340e+04	2021-05-07T09:00:54.521Z	.	
1	R_1mVPCuFCz0iSzaw	27	animal	balloon	2	balloon animal	1	1	2.084609e+03	completion	1	.	camel_b.jpg	.	camel_b.jpg	14	Trial Sequence	1_12	flow.Sequence	extraordinairy	6.129168e+04	6.128709e+04	5.918581e+04	5.919623e+04	5.920248e+04	6.130340e+04	2021-05-07T09:00:54.521Z	.	
1	R_1mVPCuFCz0iSzaw	28	animal	plain	1	plain animal	11	1	1.488945e+03	response	1	.	lion.jpg	1	lion.jpg	25	panel1	1_13_1	html.Screen	loud	6.379583e+04	6.379279e+04	6.228717e+04	6.228960e+04	6.230385e+04	6.380450e+04	2021-05-07T09:00:57.026Z	.	
1	R_1mVPCuFCz0iSzaw	29	animal	plain	1	plain animal	11	1	2.489385e+03	completion	1	.	lion.jpg	.	lion.jpg	25	Trial Sequence	1_13	flow.Sequence	loud	6.379608e+04	6.379279e+04	6.128673e+04	6.129180e+04	6.130340e+04	6.380450e+04	2021-05-07T09:00:57.026Z	.	
1	R_1mVPCuFCz0iSzaw	30	plant	balloon	2	balloon plant	4	4	1.857725e+03	response	1	.	cactus_b.jpg	1	cactus_b.jpg	13	panel1	1_14_1	html.Screen	huge	6.666886e+04	6.666267e+04	6.478827e+04	6.478918e+04	6.480494e+04	6.667597e+04	2021-05-07T09:00:59.899Z	.	
1	R_1mVPCuFCz0iSzaw	31	plant	balloon	2	balloon plant	4	4	2.858165e+03	completion	1	.	cactus_b.jpg	.	cactus_b.jpg	13	Trial Sequence	1_14	flow.Sequence	huge	6.666904e+04	6.666267e+04	6.378783e+04	6.379620e+04	6.380450e+04	6.667597e+04	2021-05-07T09:00:59.899Z	.	
1	R_1mVPCuFCz0iSzaw	32	robot	plain	1	plain robot	15	5	9.803140e+02	response	1	.	industrial_robo.jpg	1	industrial_robo.jpg	24	panel1	1_15_1	html.Screen	impressive	6.866129e+04	6.865672e+04	6.765973e+04	6.766069e+04	6.767641e+04	6.867685e+04	2021-05-07T09:01:01.891Z	.	
1	R_1mVPCuFCz0iSzaw	33	robot	plain	1	plain robot	15	5	1.980754e+03	completion	1	.	industrial_robo.jpg	.	industrial_robo.jpg	24	Trial Sequence	1_15	flow.Sequence	impressive	6.866148e+04	6.865672e+04	6.665929e+04	6.666916e+04	6.667597e+04	6.867685e+04	2021-05-07T09:01:01.891Z	.	
1	R_1mVPCuFCz0iSzaw	34	animal	plain	1	plain animal	11	1	1.117194e+03	response	1	.	cat.jpg	1	cat.jpg	15	panel1	1_16_1	html.Screen	cute	7.079918e+04	7.079448e+04	6.966061e+04	6.966189e+04	6.967729e+04	7.081112e+04	2021-05-07T09:01:04.029Z	.	
1	R_1mVPCuFCz0iSzaw	35	animal	plain	1	plain animal	11	1	2.117634e+03	completion	1	.	cat.jpg	.	cat.jpg	15	Trial Sequence	1_16	flow.Sequence	cute	7.079944e+04	7.079448e+04	6.866017e+04	6.866161e+04	6.867685e+04	7.081112e+04	2021-05-07T09:01:04.029Z	.	
1	R_1mVPCuFCz0iSzaw	36	robot	label	3	label robot	10	5	1.016967e+03	response	1	.	square_robo_l.jpg	1	square_robo_l.jpg	43	panel1	1_17_1	html.Screen	okay	7.283265e+04	7.282852e+04	7.179488e+04	7.179679e+04	7.181156e+04	7.284535e+04	2021-05-07T09:01:06.062Z	.	
1	R_1mVPCuFCz0iSzaw	37	robot	label	3	label robot	10	5	2.017407e+03	completion	1	.	square_robo_l.jpg	.	square_robo_l.jpg	43	Trial Sequence	1_17	flow.Sequence	okay	7.283279e+04	7.282852e+04	7.079444e+04	7.079957e+04	7.081112e+04	7.284535e+04	2021-05-07T09:01:06.062Z	.	
1	R_1mVPCuFCz0iSzaw	38	human	balloon	2	balloon human	2	2	1.178479e+03	response	1	.	model_b.jpg	1	model_b.jpg	26	panel1	1_18_1	html.Screen	okay	7.502741e+04	7.502427e+04	7.382911e+04	7.383051e+04	7.384579e+04	7.502964e+04	2021-05-07T09:01:08.257Z	.	
1	R_1mVPCuFCz0iSzaw	39	human	balloon	2	balloon human	2	2	2.178919e+03	completion	1	.	model_b.jpg	.	model_b.jpg	26	Trial Sequence	1_18	flow.Sequence	okay	7.502759e+04	7.502427e+04	7.282867e+04	7.283289e+04	7.284535e+04	7.502964e+04	2021-05-07T09:01:08.257Z	.	
1	R_1mVPCuFCz0iSzaw	40	object	balloon	2	balloon object	3	3	8.161380e+02	response	1	.	bishop_b.jpg	1	bishop_b.jpg	8	panel1	1_19_1	html.Screen	small	7.684365e+04	7.684017e+04	7.600736e+04	7.600905e+04	7.602403e+04	7.685773e+04	2021-05-07T09:01:10.073Z	.	
1	R_1mVPCuFCz0iSzaw	41	object	balloon	2	balloon object	3	3	1.810530e+03	completion	1	.	bishop_b.jpg	.	bishop_b.jpg	8	Trial Sequence	1_19	flow.Sequence	small	7.684387e+04	7.684017e+04	7.501297e+04	7.502770e+04	7.502964e+04	7.685773e+04	2021-05-07T09:01:10.074Z	.	
1	R_1mVPCuFCz0iSzaw	42	robot	plain	1	plain robot	15	5	2.982178e+03	response	1	.	whole_robo.jpg	1	whole_robo.jpg	47	panel1	1_20_1	html.Screen	extraordinairy	8.084416e+04	8.084035e+04	7.784150e+04	7.784311e+04	7.785817e+04	8.085949e+04	2021-05-07T09:01:14.074Z	.	
1	R_1mVPCuFCz0iSzaw	43	robot	plain	1	plain robot	15	5	3.982618e+03	completion	1	.	whole_robo.jpg	.	whole_robo.jpg	47	Trial Sequence	1_20	flow.Sequence	extraordinairy	8.084434e+04	8.084035e+04	7.684106e+04	7.684398e+04	7.685773e+04	8.085949e+04	2021-05-07T09:01:14.074Z	.	
1	R_1mVPCuFCz0iSzaw	44	human	balloon	2	balloon human	2	2	9.054380e+02	response	1	.	snowboarder_b.jpg	1	snowboarder_b.jpg	41	panel1	1_21_1	html.Screen	cool	8.276991e+04	8.276537e+04	8.184326e+04	8.184427e+04	8.185993e+04	8.277700e+04	2021-05-07T09:01:16.000Z	.	
1	R_1mVPCuFCz0iSzaw	45	human	balloon	2	balloon human	2	2	1.905878e+03	completion	1	.	snowboarder_b.jpg	.	snowboarder_b.jpg	41	Trial Sequence	1_21	flow.Sequence	cool	8.277015e+04	8.276537e+04	8.084282e+04	8.084442e+04	8.085949e+04	8.277700e+04	2021-05-07T09:01:16.000Z	.	
1	R_1mVPCuFCz0iSzaw	46	object	plain	1	plain object	13	3	1.862528e+03	response	1	.	anker.jpg	1	anker.jpg	1	panel1	1_22_1	html.Screen	solid	8.564343e+04	8.563997e+04	8.376077e+04	8.376274e+04	8.377744e+04	8.565551e+04	2021-05-07T09:01:18.873Z	.	
1	R_1mVPCuFCz0iSzaw	47	object	plain	1	plain object	13	3	2.862968e+03	completion	1	.	anker.jpg	.	anker.jpg	1	Trial Sequence	1_22	flow.Sequence	solid	8.564364e+04	8.563997e+04	8.276033e+04	8.277030e+04	8.277700e+04	8.565551e+04	2021-05-07T09:01:18.873Z	.	
1	R_1mVPCuFCz0iSzaw	48	robot	balloon	2	balloon robot	5	5	1.372930e+03	response	1	.	industrial_robo_b.jpg	0	industrial_robo_b.jpg	24	panel1	1_23_1	html.Screen	impressive	8.803216e+04	8.802887e+04	8.663927e+04	8.664015e+04	8.665595e+04	8.803989e+04	2021-05-07T09:01:21.262Z	.	
1	R_1mVPCuFCz0iSzaw	49	robot	balloon	2	balloon robot	5	5	2.373370e+03	completion	1	.	industrial_robo_b.jpg	.	industrial_robo_b.jpg	24	Trial Sequence	1_23	flow.Sequence	impressive	8.803234e+04	8.802887e+04	8.563883e+04	8.564375e+04	8.565551e+04	8.803989e+04	2021-05-07T09:01:21.262Z	.	
1	R_1mVPCuFCz0iSzaw	50	animal	label	3	label animal	6	1	1.851503e+03	response	1	.	camel_l.jpg	0	camel_l.jpg	14	panel1	1_24_1	html.Screen	extraordinairy	9.089747e+04	9.089183e+04	8.902365e+04	8.902471e+04	8.904033e+04	9.090782e+04	2021-05-07T09:01:24.127Z	.	
1	R_1mVPCuFCz0iSzaw	51	animal	label	3	label animal	6	1	2.851943e+03	completion	1	.	camel_l.jpg	.	camel_l.jpg	14	Trial Sequence	1_24	flow.Sequence	extraordinairy	9.089768e+04	9.089183e+04	8.802321e+04	8.803243e+04	8.803989e+04	9.090782e+04	2021-05-07T09:01:24.127Z	.	
1	R_1mVPCuFCz0iSzaw	52	animal	label	3	label animal	6	1	1.466560e+03	response	1	.	butterfly_l.jpg	0	butterfly_l.jpg	12	panel1	1_25_1	html.Screen	radient	9.337942e+04	9.337481e+04	9.189158e+04	9.189315e+04	9.190826e+04	9.339224e+04	2021-05-07T09:01:26.609Z	.	
1	R_1mVPCuFCz0iSzaw	53	animal	label	3	label animal	6	1	2.467000e+03	completion	1	.	butterfly_l.jpg	.	butterfly_l.jpg	12	Trial Sequence	1_25	flow.Sequence	radient	9.337963e+04	9.337481e+04	9.089114e+04	9.089779e+04	9.090782e+04	9.339224e+04	2021-05-07T09:01:26.609Z	.	
1	R_1mVPCuFCz0iSzaw	54	animal	label	3	label animal	6	1	1.234834e+03	response	1	.	rat_l.jpg	0	rat_l.jpg	32	panel1	1_26_1	html.Screen	solid	9.563131e+04	9.562752e+04	9.437601e+04	9.437777e+04	9.439268e+04	9.564158e+04	2021-05-07T09:01:28.861Z	.	
1	R_1mVPCuFCz0iSzaw	55	animal	label	3	label animal	6	1	2.235274e+03	completion	1	.	rat_l.jpg	.	rat_l.jpg	32	Trial Sequence	1_26	flow.Sequence	solid	9.563156e+04	9.562752e+04	9.337557e+04	9.337979e+04	9.339224e+04	9.564158e+04	2021-05-07T09:01:28.861Z	.	
1	R_1mVPCuFCz0iSzaw	56	plant	label	3	label plant	9	4	1.350563e+03	response	1	.	shilf_l.jpg	0	shilf_l.jpg	36	panel1	1_27_1	html.Screen	ugly	9.799716e+04	9.799258e+04	9.662535e+04	9.662623e+04	9.664202e+04	9.800929e+04	2021-05-07T09:01:31.227Z	.	
1	R_1mVPCuFCz0iSzaw	57	plant	label	3	label plant	9	4	2.351003e+03	completion	1	.	shilf_l.jpg	.	shilf_l.jpg	36	Trial Sequence	1_27	flow.Sequence	ugly	9.799735e+04	9.799258e+04	9.562491e+04	9.563172e+04	9.564158e+04	9.800929e+04	2021-05-07T09:01:31.227Z	.	
1	R_1mVPCuFCz0iSzaw	58	human	plain	1	plain human	12	2	1.085740e+03	response	1	.	model.jpg	1	model.jpg	26	panel1	1_28_1	html.Screen	okay	1.000990e+05	1.000955e+05	9.899306e+04	9.899451e+04	9.900973e+04	1.001102e+05	2021-05-07T09:01:33.329Z	.	
1	R_1mVPCuFCz0iSzaw	59	human	plain	1	plain human	12	2	2.086180e+03	completion	1	.	model.jpg	.	model.jpg	26	Trial Sequence	1_28	flow.Sequence	okay	1.000992e+05	1.000955e+05	9.799262e+04	9.799748e+04	9.800929e+04	1.001102e+05	2021-05-07T09:01:33.329Z	.	
1	R_1mVPCuFCz0iSzaw	60	plant	label	3	label plant	9	4	1.482696e+03	response	1	.	mushrooms_l.jpg	1	mushrooms_l.jpg	28	panel1	1_29_1	html.Screen	odd	1.025979e+05	1.025933e+05	1.010940e+05	1.010949e+05	1.011107e+05	1.026113e+05	2021-05-07T09:01:35.828Z	.	
1	R_1mVPCuFCz0iSzaw	61	plant	label	3	label plant	9	4	2.483136e+03	completion	1	.	mushrooms_l.jpg	.	mushrooms_l.jpg	28	Trial Sequence	1_29	flow.Sequence	odd	1.025981e+05	1.025933e+05	1.000935e+05	1.000994e+05	1.001102e+05	1.026113e+05	2021-05-07T09:01:35.828Z	.	
1	R_1mVPCuFCz0iSzaw	62	robot	label	3	label robot	10	5	2.207456e+03	response	1	.	rolling_robo_l.jpg	0	rolling_robo_l.jpg	33	panel1	1_30_1	html.Screen	huge	1.058224e+05	1.058192e+05	1.035951e+05	1.035966e+05	1.036118e+05	1.058241e+05	2021-05-07T09:01:39.052Z	.	
1	R_1mVPCuFCz0iSzaw	63	robot	label	3	label robot	10	5	3.207896e+03	completion	1	.	rolling_robo_l.jpg	.	rolling_robo_l.jpg	33	Trial Sequence	1_30	flow.Sequence	huge	1.058226e+05	1.058192e+05	1.025946e+05	1.025982e+05	1.026113e+05	1.058241e+05	2021-05-07T09:01:39.052Z	.	
1	R_1mVPCuFCz0iSzaw	64	human	plain	1	plain human	12	2	1.429528e+03	response	1	.	hula_girl .jpg	0	hula_girl .jpg	23	panel1	1_31_1	html.Screen	plain	1.082574e+05	1.082541e+05	1.068079e+05	1.068098e+05	1.068246e+05	1.082585e+05	2021-05-07T09:01:41.487Z	.	
1	R_1mVPCuFCz0iSzaw	65	human	plain	1	plain human	12	2	2.429968e+03	completion	1	.	hula_girl .jpg	.	hula_girl .jpg	23	Trial Sequence	1_31	flow.Sequence	plain	1.082576e+05	1.082541e+05	1.058075e+05	1.058228e+05	1.058241e+05	1.082585e+05	2021-05-07T09:01:41.487Z	.	
1	R_1mVPCuFCz0iSzaw	66	plant	balloon	2	balloon plant	4	4	1.462894e+03	response	1	.	coral_b.jpg	0	coral_b.jpg	18	panel1	1_32_1	html.Screen	awesome	1.107254e+05	1.107219e+05	1.092423e+05	1.092429e+05	1.092590e+05	1.107430e+05	2021-05-07T09:01:43.955Z	.	
1	R_1mVPCuFCz0iSzaw	67	plant	balloon	2	balloon plant	4	4	2.463334e+03	completion	1	.	coral_b.jpg	.	coral_b.jpg	18	Trial Sequence	1_32	flow.Sequence	awesome	1.107256e+05	1.107219e+05	1.082419e+05	1.082577e+05	1.082585e+05	1.107430e+05	2021-05-07T09:01:43.955Z	.	
1	R_1mVPCuFCz0iSzaw	68	animal	label	3	label animal	6	1	2.239443e+03	response	1	.	crab_l.jpg	1	crab_l.jpg	19	panel1	1_33_1	html.Screen	small	1.139887e+05	1.139828e+05	1.117267e+05	1.117285e+05	1.117434e+05	1.139944e+05	2021-05-07T09:01:47.218Z	.	
1	R_1mVPCuFCz0iSzaw	69	animal	label	3	label animal	6	1	3.239883e+03	completion	1	.	crab_l.jpg	.	crab_l.jpg	19	Trial Sequence	1_33	flow.Sequence	small	1.139889e+05	1.139828e+05	1.107263e+05	1.107258e+05	1.107430e+05	1.139944e+05	2021-05-07T09:01:47.219Z	.	
1	R_1mVPCuFCz0iSzaw	70	object	plain	1	plain object	13	3	2.321698e+03	response	1	.	sail.jpg	0	sail.jpg	35	panel1	1_34_1	html.Screen	radient	1.173218e+05	1.173165e+05	1.149782e+05	1.149797e+05	1.149948e+05	1.173264e+05	2021-05-07T09:01:50.551Z	.	
1	R_1mVPCuFCz0iSzaw	71	object	plain	1	plain object	13	3	3.322138e+03	completion	1	.	sail.jpg	.	sail.jpg	35	Trial Sequence	1_34	flow.Sequence	radient	1.173220e+05	1.173165e+05	1.139777e+05	1.139891e+05	1.139944e+05	1.173264e+05	2021-05-07T09:01:50.552Z	.	
1	R_1mVPCuFCz0iSzaw	72	plant	plain	1	plain plant	14	4	1.309621e+03	response	1	.	mushrooms .jpg	1	mushrooms .jpg	28	panel1	1_35_1	html.Screen	odd	1.196398e+05	1.196365e+05	1.183102e+05	1.183120e+05	1.183268e+05	1.196441e+05	2021-05-07T09:01:52.869Z	.	
1	R_1mVPCuFCz0iSzaw	73	plant	plain	1	plain plant	14	4	2.310061e+03	completion	1	.	mushrooms .jpg	.	mushrooms .jpg	28	Trial Sequence	1_35	flow.Sequence	odd	1.196399e+05	1.196365e+05	1.173097e+05	1.173222e+05	1.173264e+05	1.196441e+05	2021-05-07T09:01:52.870Z	.	
1	R_1mVPCuFCz0iSzaw	74	plant	plain	1	plain plant	14	4	1.633880e+03	response	1	.	sprout.jpg	1	sprout.jpg	42	panel1	1_36_1	html.Screen	basic	1.222815e+05	1.222784e+05	1.206279e+05	1.206297e+05	1.206445e+05	1.222953e+05	2021-05-07T09:01:55.511Z	.	
1	R_1mVPCuFCz0iSzaw	75	plant	plain	1	plain plant	14	4	2.634320e+03	completion	1	.	sprout.jpg	.	sprout.jpg	42	Trial Sequence	1_36	flow.Sequence	basic	1.222817e+05	1.222784e+05	1.196274e+05	1.196402e+05	1.196441e+05	1.222953e+05	2021-05-07T09:01:55.511Z	.	
1	R_1mVPCuFCz0iSzaw	76	robot	plain	1	plain robot	15	5	1.481689e+03	response	1	.	square_robo.jpg	1	square_robo.jpg	43	panel1	1_37_1	html.Screen	okay	1.247824e+05	1.247774e+05	1.232790e+05	1.232810e+05	1.232957e+05	1.247964e+05	2021-05-07T09:01:58.012Z	.	
1	R_1mVPCuFCz0iSzaw	77	robot	plain	1	plain robot	15	5	2.482129e+03	completion	1	.	square_robo.jpg	.	square_robo.jpg	43	Trial Sequence	1_37	flow.Sequence	okay	1.247827e+05	1.247774e+05	1.222786e+05	1.222818e+05	1.222953e+05	1.247964e+05	2021-05-07T09:01:58.012Z	.	
1	R_1mVPCuFCz0iSzaw	78	robot	balloon	2	balloon robot	5	5	1.830259e+03	response	1	.	whole_robo_b.jpg	1	whole_robo_b.jpg	47	panel1	1_38_1	html.Screen	extraordinairy	1.276310e+05	1.276271e+05	1.257801e+05	1.257815e+05	1.257968e+05	1.276453e+05	2021-05-07T09:02:00.861Z	.	
1	R_1mVPCuFCz0iSzaw	79	robot	balloon	2	balloon robot	5	5	2.830699e+03	completion	1	.	whole_robo_b.jpg	.	whole_robo_b.jpg	47	Trial Sequence	1_38	flow.Sequence	extraordinairy	1.276313e+05	1.276271e+05	1.247797e+05	1.247828e+05	1.247964e+05	1.276453e+05	2021-05-07T09:02:00.861Z	.	
1	R_1mVPCuFCz0iSzaw	80	object	plain	1	plain object	13	3	1.509409e+03	response	1	.	harpe.jpg	0	harpe.jpg	22	panel1	1_39_1	html.Screen	loud	1.301601e+05	1.301551e+05	1.286290e+05	1.286310e+05	1.286457e+05	1.301630e+05	2021-05-07T09:02:03.390Z	.	
1	R_1mVPCuFCz0iSzaw	81	object	plain	1	plain object	13	3	2.509849e+03	completion	1	.	harpe.jpg	.	harpe.jpg	22	Trial Sequence	1_39	flow.Sequence	loud	1.301603e+05	1.301551e+05	1.276286e+05	1.276314e+05	1.276453e+05	1.301630e+05	2021-05-07T09:02:03.390Z	.	
1	R_1mVPCuFCz0iSzaw	82	object	plain	1	plain object	13	3	1.477335e+03	response	1	.	bank.jpg	1	bank.jpg	6	panel1	1_40_1	html.Screen	ordinary	1.326445e+05	1.326408e+05	1.311468e+05	1.311481e+05	1.311635e+05	1.326475e+05	2021-05-07T09:02:05.874Z	.	
1	R_1mVPCuFCz0iSzaw	83	object	plain	1	plain object	13	3	2.477775e+03	completion	1	.	bank.jpg	.	bank.jpg	6	Trial Sequence	1_40	flow.Sequence	ordinary	1.326447e+05	1.326408e+05	1.301464e+05	1.301606e+05	1.301630e+05	1.326475e+05	2021-05-07T09:02:05.874Z	.	
1	R_1mVPCuFCz0iSzaw	84	human	label	3	label human	7	2	1.263904e+03	response	1	.	women_l.jpg	1	women_l.jpg	48	panel1	1_41_1	html.Screen	great	1.349181e+05	1.349118e+05	1.336312e+05	1.336323e+05	1.336479e+05	1.349318e+05	2021-05-07T09:02:08.148Z	.	
1	R_1mVPCuFCz0iSzaw	85	human	label	3	label human	7	2	2.264344e+03	completion	1	.	women_l.jpg	.	women_l.jpg	48	Trial Sequence	1_41	flow.Sequence	great	1.349183e+05	1.349118e+05	1.326308e+05	1.326448e+05	1.326475e+05	1.349318e+05	2021-05-07T09:02:08.148Z	.	
1	R_1mVPCuFCz0iSzaw	86	animal	label	3	label animal	6	1	2.048506e+03	response	1	.	pinguin_l.jpg	0	pinguin_l.jpg	30	panel1	1_42_1	html.Screen	sweet	1.379858e+05	1.379807e+05	1.359156e+05	1.359176e+05	1.359322e+05	1.379894e+05	2021-05-07T09:02:11.215Z	.	
1	R_1mVPCuFCz0iSzaw	87	animal	label	3	label animal	6	1	3.048946e+03	completion	1	.	pinguin_l.jpg	.	pinguin_l.jpg	30	Trial Sequence	1_42	flow.Sequence	sweet	1.379860e+05	1.379807e+05	1.349151e+05	1.349185e+05	1.349318e+05	1.379894e+05	2021-05-07T09:02:11.216Z	.	
1	R_1mVPCuFCz0iSzaw	88	animal	balloon	2	balloon animal	1	1	1.399697e+03	response	1	.	crab_b.jpg	0	crab_b.jpg	19	panel1	1_43_1	html.Screen	small	1.403928e+05	1.403895e+05	1.389732e+05	1.389743e+05	1.389898e+05	1.404071e+05	2021-05-07T09:02:13.623Z	.	
1	R_1mVPCuFCz0iSzaw	89	animal	balloon	2	balloon animal	1	1	2.400137e+03	completion	1	.	crab_b.jpg	.	crab_b.jpg	19	Trial Sequence	1_43	flow.Sequence	small	1.403929e+05	1.403895e+05	1.379727e+05	1.379861e+05	1.379894e+05	1.404071e+05	2021-05-07T09:02:13.623Z	.	
1	R_1mVPCuFCz0iSzaw	90	robot	label	3	label robot	10	5	2.805007e+03	response	1	.	broken_robo_l.jpg	1	broken_robo_l.jpg	9	panel1	1_44_1	html.Screen	odd	1.442170e+05	1.442126e+05	1.413909e+05	1.413919e+05	1.414076e+05	1.442255e+05	2021-05-07T09:02:17.447Z	.	
1	R_1mVPCuFCz0iSzaw	91	robot	label	3	label robot	10	5	3.805447e+03	completion	1	.	broken_robo_l.jpg	.	broken_robo_l.jpg	9	Trial Sequence	1_44	flow.Sequence	odd	1.442172e+05	1.442126e+05	1.403904e+05	1.403940e+05	1.404071e+05	1.442255e+05	2021-05-07T09:02:17.447Z	.	
1	R_1mVPCuFCz0iSzaw	92	plant	plain	1	plain plant	14	4	1.728431e+03	response	1	.	potted_plant.jpg	0	potted_plant.jpg	31	panel1	1_45_1	html.Screen	wonderful	1.469599e+05	1.469543e+05	1.452092e+05	1.452111e+05	1.452259e+05	1.469767e+05	2021-05-07T09:02:20.190Z	.	
1	R_1mVPCuFCz0iSzaw	93	plant	plain	1	plain plant	14	4	2.728871e+03	completion	1	.	potted_plant.jpg	.	potted_plant.jpg	31	Trial Sequence	1_45	flow.Sequence	wonderful	1.469602e+05	1.469543e+05	1.442088e+05	1.442173e+05	1.442255e+05	1.469767e+05	2021-05-07T09:02:20.190Z	.	
1	R_1mVPCuFCz0iSzaw	94	animal	balloon	2	balloon animal	1	1	1.935769e+03	response	1	.	lion_b.jpg	0	lion_b.jpg	25	panel1	1_46_1	html.Screen	loud	1.499147e+05	1.499102e+05	1.479577e+05	1.479591e+05	1.479744e+05	1.499253e+05	2021-05-07T09:02:23.144Z	.	
1	R_1mVPCuFCz0iSzaw	95	animal	balloon	2	balloon animal	1	1	2.933511e+03	completion	1	.	lion_b.jpg	.	lion_b.jpg	25	Trial Sequence	1_46	flow.Sequence	loud	1.499149e+05	1.499102e+05	146960	1.469603e+05	1.469767e+05	1.499253e+05	2021-05-07T09:02:23.145Z	.	
1	R_1mVPCuFCz0iSzaw	96	human	plain	1	plain human	12	2	2.550126e+03	response	1	.	skater.jpg	1	skater.jpg	38	panel1	1_47_1	html.Screen	impressive	1.534793e+05	1.534758e+05	1.509090e+05	1.509109e+05	1.509257e+05	1.534935e+05	2021-05-07T09:02:26.709Z	.	
1	R_1mVPCuFCz0iSzaw	97	human	plain	1	plain human	12	2	3.550566e+03	completion	1	.	skater.jpg	.	skater.jpg	38	Trial Sequence	1_47	flow.Sequence	impressive	1.534795e+05	1.534758e+05	1.499086e+05	1.499151e+05	1.499253e+05	1.534935e+05	2021-05-07T09:02:26.709Z	.	
1	R_1mVPCuFCz0iSzaw	98	plant	balloon	2	balloon plant	4	4	1.322940e+03	response	1	.	mushrooms_b.jpg	0	mushrooms_b.jpg	28	panel1	1_48_1	html.Screen	odd	1.558200e+05	1.558169e+05	1.544773e+05	1.544792e+05	1.544940e+05	1.558279e+05	2021-05-07T09:02:29.050Z	.	
1	R_1mVPCuFCz0iSzaw	99	plant	balloon	2	balloon plant	4	4	2.323380e+03	completion	1	.	mushrooms_b.jpg	.	mushrooms_b.jpg	28	Trial Sequence	1_48	flow.Sequence	odd	1.558205e+05	1.558169e+05	1.534768e+05	1.534796e+05	1.534935e+05	1.558279e+05	2021-05-07T09:02:29.050Z	.	
1	R_1mVPCuFCz0iSzaw	100	robot	balloon	2	balloon robot	5	5	1.322460e+03	response	1	.	rolling_robo_b.jpg	0	rolling_robo_b.jpg	33	panel1	1_49_1	html.Screen	huge	1.581560e+05	1.581508e+05	1.568116e+05	1.568128e+05	1.568283e+05	1.581624e+05	2021-05-07T09:02:31.386Z	.	
1	R_1mVPCuFCz0iSzaw	101	robot	balloon	2	balloon robot	5	5	2.322900e+03	completion	1	.	rolling_robo_b.jpg	.	rolling_robo_b.jpg	33	Trial Sequence	1_49	flow.Sequence	huge	1.581561e+05	1.581508e+05	1.558112e+05	1.558207e+05	1.558279e+05	1.581624e+05	2021-05-07T09:02:31.386Z	.	
1	R_1mVPCuFCz0iSzaw	102	object	plain	1	plain object	13	3	1.312663e+03	response	1	.	bishop.jpg	1	bishop.jpg	8	panel1	1_50_1	html.Screen	small	1.604793e+05	1.604755e+05	1.591462e+05	1.591484e+05	1.591629e+05	1.604968e+05	2021-05-07T09:02:33.709Z	.	
1	R_1mVPCuFCz0iSzaw	103	object	plain	1	plain object	13	3	2.313103e+03	completion	1	.	bishop.jpg	.	bishop.jpg	8	Trial Sequence	1_50	flow.Sequence	small	1.604795e+05	1.604755e+05	1.581457e+05	1.581562e+05	1.581624e+05	1.604968e+05	2021-05-07T09:02:33.709Z	.	
1	R_1mVPCuFCz0iSzaw	104	plant	label	3	label plant	9	4	1.414253e+03	response	1	.	coral_l.jpg	0	coral_l.jpg	18	panel1	1_51_1	html.Screen	awesome	1.629161e+05	1.629115e+05	1.614805e+05	1.614821e+05	1.614972e+05	1.629312e+05	2021-05-07T09:02:36.146Z	.	
1	R_1mVPCuFCz0iSzaw	105	plant	label	3	label plant	9	4	2.414693e+03	completion	1	.	coral_l.jpg	.	coral_l.jpg	18	Trial Sequence	1_51	flow.Sequence	awesome	1.629164e+05	1.629115e+05	1.604801e+05	1.604797e+05	1.604968e+05	1.629312e+05	2021-05-07T09:02:36.146Z	.	
1	R_1mVPCuFCz0iSzaw	106	animal	plain	1	plain animal	11	1	1.404849e+03	response	1	.	pinguin.jpg	0	pinguin.jpg	30	panel1	1_52_1	html.Screen	sweet	1.653408e+05	1.653365e+05	1.639149e+05	1.639165e+05	1.639316e+05	1.653489e+05	2021-05-07T09:02:38.570Z	.	
1	R_1mVPCuFCz0iSzaw	107	animal	plain	1	plain animal	11	1	2.405289e+03	completion	1	.	pinguin.jpg	.	pinguin.jpg	30	Trial Sequence	1_52	flow.Sequence	sweet	1.653409e+05	1.653365e+05	1.629145e+05	1.629165e+05	1.629312e+05	1.653489e+05	2021-05-07T09:02:38.571Z	.	
1	R_1mVPCuFCz0iSzaw	108	plant	balloon	2	balloon plant	4	4	1.727939e+03	response	1	.	shilf_b.jpg	0	shilf_b.jpg	36	panel1	1_53_1	html.Screen	ugly	1.680816e+05	1.680773e+05	1.663327e+05	1.663344e+05	1.663494e+05	1.680834e+05	2021-05-07T09:02:41.311Z	.	
1	R_1mVPCuFCz0iSzaw	109	plant	balloon	2	balloon plant	4	4	2.728379e+03	completion	1	.	shilf_b.jpg	.	shilf_b.jpg	36	Trial Sequence	1_53	flow.Sequence	ugly	1.680819e+05	1.680773e+05	1.653322e+05	1.653410e+05	1.653489e+05	1.680834e+05	2021-05-07T09:02:41.312Z	.	
1	R_1mVPCuFCz0iSzaw	110	animal	balloon	2	balloon animal	1	1	3.022444e+03	response	1	.	cook_b.jpg	0	cook_b.jpg	17	panel1	1_54_1	html.Screen	old	1.721114e+05	1.721058e+05	1.690667e+05	1.690682e+05	1.690834e+05	1.721181e+05	2021-05-07T09:02:45.341Z	.	
1	R_1mVPCuFCz0iSzaw	111	animal	balloon	2	balloon animal	1	1	4.022388e+03	completion	1	.	cook_b.jpg	.	cook_b.jpg	17	Trial Sequence	1_54	flow.Sequence	old	1.721117e+05	1.721058e+05	1.680668e+05	1.680820e+05	1.680834e+05	1.721181e+05	2021-05-07T09:02:45.341Z	.	
1	R_1mVPCuFCz0iSzaw	112	animal	plain	1	plain animal	11	1	2.313026e+03	response	1	.	rat.jpg	0	rat.jpg	32	panel1	1_55_1	html.Screen	solid	1.754351e+05	1.754315e+05	1.731018e+05	1.731031e+05	1.731185e+05	1.754362e+05	2021-05-07T09:02:48.665Z	.	
1	R_1mVPCuFCz0iSzaw	113	animal	plain	1	plain animal	11	1	3.313466e+03	completion	1	.	rat.jpg	.	rat.jpg	32	Trial Sequence	1_55	flow.Sequence	solid	1.754353e+05	1.754315e+05	1.721014e+05	1.721119e+05	1.721181e+05	1.754362e+05	2021-05-07T09:02:48.665Z	.	
1	R_1mVPCuFCz0iSzaw	114	robot	plain	1	plain robot	15	5	1.100745e+03	response	1	.	antenne_robo.jpg	0	antenne_robo.jpg	2	panel1	1_56_1	html.Screen	sweet	1.775410e+05	1.775374e+05	1.764200e+05	1.764220e+05	1.764366e+05	1.775538e+05	2021-05-07T09:02:50.771Z	.	
1	R_1mVPCuFCz0iSzaw	115	robot	plain	1	plain robot	15	5	2.101185e+03	completion	1	.	antenne_robo.jpg	.	antenne_robo.jpg	2	Trial Sequence	1_56	flow.Sequence	sweet	1.775412e+05	1.775374e+05	1.754195e+05	1.754354e+05	1.754362e+05	1.775538e+05	2021-05-07T09:02:50.771Z	.	
1	R_1mVPCuFCz0iSzaw	116	robot	label	3	label robot	10	5	1.127112e+03	response	1	.	antenne_robo_l.jpg	0	antenne_robo_l.jpg	2	panel1	1_57_1	html.Screen	sweet	1.796850e+05	1.796813e+05	1.785375e+05	1.785395e+05	1.785542e+05	1.796937e+05	2021-05-07T09:02:52.915Z	.	
1	R_1mVPCuFCz0iSzaw	117	robot	label	3	label robot	10	5	2.127552e+03	completion	1	.	antenne_robo_l.jpg	.	antenne_robo_l.jpg	2	Trial Sequence	1_57	flow.Sequence	sweet	1.796852e+05	1.796813e+05	1.775371e+05	1.775413e+05	1.775538e+05	1.796937e+05	2021-05-07T09:02:52.915Z	.	
1	R_1mVPCuFCz0iSzaw	118	human	label	3	label human	7	2	1.256873e+03	response	1	.	snowboarder_l.jpg	1	snowboarder_l.jpg	41	panel1	1_58_1	html.Screen	cool	1.819618e+05	1.819511e+05	1.806775e+05	1.806789e+05	1.806942e+05	1.819781e+05	2021-05-07T09:02:55.191Z	.	
1	R_1mVPCuFCz0iSzaw	119	human	label	3	label human	7	2	2.257313e+03	completion	1	.	snowboarder_l.jpg	.	snowboarder_l.jpg	41	Trial Sequence	1_58	flow.Sequence	cool	1.819619e+05	1.819511e+05	1.796771e+05	1.796854e+05	1.796937e+05	1.819781e+05	2021-05-07T09:02:55.192Z	.	
1	R_1mVPCuFCz0iSzaw	120	robot	label	3	label robot	10	5	2.661665e+03	response	1	.	astronaut_robo_l.jpg	0	astronaut_robo_l.jpg	4	panel1	1_59_1	html.Screen	wonderful	1.856455e+05	1.856402e+05	1.829618e+05	1.829630e+05	1.829785e+05	1.856464e+05	2021-05-07T09:02:58.875Z	.	
1	R_1mVPCuFCz0iSzaw	121	robot	label	3	label robot	10	5	3.662105e+03	completion	1	.	astronaut_robo_l.jpg	.	astronaut_robo_l.jpg	4	Trial Sequence	1_59	flow.Sequence	wonderful	1.856458e+05	1.856402e+05	1.819614e+05	1.819621e+05	1.819781e+05	1.856464e+05	2021-05-07T09:02:58.875Z	.	
1	R_1mVPCuFCz0iSzaw	122	plant	label	3	label plant	9	4	1.042795e+03	response	1	.	sprout_l.jpg	1	sprout_l.jpg	42	panel1	1_60_1	html.Screen	basic	1.876934e+05	1.876896e+05	1.866301e+05	1.866310e+05	1.866468e+05	1.876973e+05	2021-05-07T09:03:00.923Z	.	
1	R_1mVPCuFCz0iSzaw	123	plant	label	3	label plant	9	4	2.043235e+03	completion	1	.	sprout_l.jpg	.	sprout_l.jpg	42	Trial Sequence	1_60	flow.Sequence	basic	1.876937e+05	1.876896e+05	1.856297e+05	1.856459e+05	1.856464e+05	1.876973e+05	2021-05-07T09:03:00.923Z	.	
1	R_1mVPCuFCz0iSzaw	124	plant	label	3	label plant	9	4	2.035768e+03	response	1	.	tulip_l.jpg	0	tulip_l.jpg	46	panel1	1_61_1	html.Screen	modern	1.907407e+05	1.907375e+05	1.886851e+05	1.886864e+05	1.887017e+05	1.907526e+05	2021-05-07T09:03:03.970Z	.	
1	R_1mVPCuFCz0iSzaw	125	plant	label	3	label plant	9	4	3.040253e+03	completion	1	.	tulip_l.jpg	.	tulip_l.jpg	46	Trial Sequence	1_61	flow.Sequence	modern	1.907408e+05	1.907375e+05	1.876806e+05	1.876938e+05	1.876973e+05	1.907526e+05	2021-05-07T09:03:03.971Z	.	
1	R_1mVPCuFCz0iSzaw	126	animal	balloon	2	balloon animal	1	1	1.324301e+03	response	1	.	butterfly_b.jpg	0	butterfly_b.jpg	12	panel1	1_62_1	html.Screen	radient	1.930810e+05	1.930774e+05	1.917364e+05	1.917377e+05	1.917531e+05	1.930870e+05	2021-05-07T09:03:06.311Z	.	
1	R_1mVPCuFCz0iSzaw	127	animal	balloon	2	balloon animal	1	1	2.324741e+03	completion	1	.	butterfly_b.jpg	.	butterfly_b.jpg	12	Trial Sequence	1_62	flow.Sequence	radient	1.930812e+05	1.930774e+05	1.907360e+05	1.907409e+05	1.907526e+05	1.930870e+05	2021-05-07T09:03:06.311Z	.	
1	R_1mVPCuFCz0iSzaw	128	robot	balloon	2	balloon robot	5	5	2.051006e+03	response	1	.	star_track_robo_b.jpg	0	star_track_robo_b.jpg	44	panel1	1_63_1	html.Screen	fair	1.961425e+05	1.961385e+05	1.940708e+05	1.940731e+05	1.940874e+05	1.961550e+05	2021-05-07T09:03:09.372Z	.	
1	R_1mVPCuFCz0iSzaw	129	robot	balloon	2	balloon robot	5	5	3.051446e+03	completion	1	.	star_track_robo_b.jpg	.	star_track_robo_b.jpg	44	Trial Sequence	1_63	flow.Sequence	fair	1.961427e+05	1.961385e+05	1.930703e+05	1.930813e+05	1.930870e+05	1.961550e+05	2021-05-07T09:03:09.372Z	.	
1	R_1mVPCuFCz0iSzaw	130	robot	label	3	label robot	10	5	1.254605e+03	response	1	.	whole_robo_l.jpg	1	whole_robo_l.jpg	47	panel1	1_64_1	html.Screen	extraordinairy	1.984151e+05	1.984101e+05	1.971388e+05	1.971404e+05	1.971555e+05	1.984227e+05	2021-05-07T09:03:11.645Z	.	
1	R_1mVPCuFCz0iSzaw	131	robot	label	3	label robot	10	5	2.255045e+03	completion	1	.	whole_robo_l.jpg	.	whole_robo_l.jpg	47	Trial Sequence	1_64	flow.Sequence	extraordinairy	1.984154e+05	1.984101e+05	1.961384e+05	1.961428e+05	1.961550e+05	1.984227e+05	2021-05-07T09:03:11.645Z	.	
1	R_1mVPCuFCz0iSzaw	132	object	label	3	label object	8	3	1.721559e+03	response	1	.	shoe_l.jpg	1	shoe_l.jpg	37	panel1	1_65_1	html.Screen	ugly	2.011518e+05	2.011481e+05	1.994099e+05	1.994118e+05	1.994266e+05	2.011606e+05	2021-05-07T09:03:14.381Z	.	
1	R_1mVPCuFCz0iSzaw	133	object	label	3	label object	8	3	2.725421e+03	completion	1	.	shoe_l.jpg	.	shoe_l.jpg	37	Trial Sequence	1_65	flow.Sequence	ugly	2.011520e+05	2.011481e+05	1.984060e+05	1.984156e+05	1.984227e+05	2.011606e+05	2021-05-07T09:03:14.382Z	.	
1	R_1mVPCuFCz0iSzaw	134	filler	filler	4	filler	16	6	4.737553e+03	response	1	.	filler4.jpg	0	filler4.jpg	47	panel1	1_66_1	html.Screen	filler	2.069053e+05	2.068986e+05	2.021444e+05	2.021457e+05	2.021611e+05	2.069299e+05	2021-05-07T09:03:20.135Z	.	
1	R_1mVPCuFCz0iSzaw	135	filler	filler	4	filler	16	6	5.737993e+03	completion	1	.	filler4.jpg	.	filler4.jpg	47	Trial Sequence	1_66	flow.Sequence	filler	2.069055e+05	2.068986e+05	2.011440e+05	2.011522e+05	2.011606e+05	2.069299e+05	2021-05-07T09:03:20.135Z	.	
1	R_1mVPCuFCz0iSzaw	136	filler	filler	4	filler	16	6	4.463654e+03	response	1	.	filler1.jpg	0	filler1.jpg	47	panel1	1_67_1	html.Screen	filler	2.123989e+05	2.123939e+05	2.079136e+05	2.079154e+05	2.079303e+05	2.124018e+05	2021-05-07T09:03:25.629Z	.	
1	R_1mVPCuFCz0iSzaw	137	filler	filler	4	filler	16	6	5.464094e+03	completion	1	.	filler1.jpg	.	filler1.jpg	47	Trial Sequence	1_67	flow.Sequence	filler	2.123991e+05	2.123939e+05	2.069132e+05	2.069056e+05	2.069299e+05	2.124018e+05	2021-05-07T09:03:25.629Z	.	
1	R_1mVPCuFCz0iSzaw	138	object	balloon	2	balloon object	3	3	1.981425e+04	response	1	.	chair_b.jpg	0	chair_b.jpg	16	panel1	1_68_1	html.Screen	basic	2.332210e+05	2.332165e+05	2.133856e+05	2.133869e+05	2.134023e+05	2.332340e+05	2021-05-07T09:03:46.451Z	.	
1	R_1mVPCuFCz0iSzaw	139	object	balloon	2	balloon object	3	3	2.081469e+04	completion	1	.	chair_b.jpg	.	chair_b.jpg	16	Trial Sequence	1_68	flow.Sequence	basic	2.332211e+05	2.332165e+05	2.123852e+05	2.123992e+05	2.124018e+05	2.332340e+05	2021-05-07T09:03:46.451Z	.	
1	R_1mVPCuFCz0iSzaw	140	robot	plain	1	plain robot	15	5	2.705697e+03	response	1	.	astronaut_robo.jpg	0	astronaut_robo.jpg	4	panel1	1_69_1	html.Screen	wonderful	2.369445e+05	2.369401e+05	2.342178e+05	2.342195e+05	2.342344e+05	2.369523e+05	2021-05-07T09:03:50.174Z	.	
1	R_1mVPCuFCz0iSzaw	141	robot	plain	1	plain robot	15	5	3.706137e+03	completion	1	.	astronaut_robo.jpg	.	astronaut_robo.jpg	4	Trial Sequence	1_69	flow.Sequence	wonderful	2.369446e+05	2.369401e+05	2.332173e+05	2.332212e+05	2.332340e+05	2.369523e+05	2021-05-07T09:03:50.174Z	.	
1	R_1mVPCuFCz0iSzaw	142	object	plain	1	plain object	13	3	1.399290e+03	response	1	.	shoe.jpg	1	shoe.jpg	37	panel1	1_70_1	html.Screen	ugly	2.393555e+05	2.393520e+05	2.379361e+05	2.379378e+05	2.379527e+05	2.393700e+05	2021-05-07T09:03:52.585Z	.	
1	R_1mVPCuFCz0iSzaw	143	object	plain	1	plain object	13	3	2.399730e+03	completion	1	.	shoe.jpg	.	shoe.jpg	37	Trial Sequence	1_70	flow.Sequence	ugly	2.393557e+05	2.393520e+05	2.369356e+05	2.369448e+05	2.369523e+05	2.393700e+05	2021-05-07T09:03:52.585Z	.	
1	R_1mVPCuFCz0iSzaw	144	human	balloon	2	balloon human	2	2	1.162276e+03	response	1	.	women_b.jpg	1	women_b.jpg	48	panel1	1_71_1	html.Screen	great	2.415284e+05	2.415240e+05	2.403451e+05	2.403459e+05	2.403618e+05	2.415456e+05	2021-05-07T09:03:54.758Z	.	
1	R_1mVPCuFCz0iSzaw	145	human	balloon	2	balloon human	2	2	2.154025e+03	completion	1	.	women_b.jpg	.	women_b.jpg	48	Trial Sequence	1_71	flow.Sequence	great	2.415285e+05	2.415240e+05	2.393534e+05	2.393558e+05	2.393700e+05	2.415456e+05	2021-05-07T09:03:54.758Z	.	
1	R_1mVPCuFCz0iSzaw	146	robot	plain	1	plain robot	15	5	1.129957e+03	response	1	.	small_robo.jpg	0	small_robo.jpg	40	panel1	1_72_1	html.Screen	modern	2.436805e+05	2.436760e+05	2.425294e+05	2.425356e+05	2.425461e+05	2.436966e+05	2021-05-07T09:03:56.910Z	.	
1	R_1mVPCuFCz0iSzaw	147	robot	plain	1	plain robot	15	5	2.130397e+03	completion	1	.	small_robo.jpg	.	small_robo.jpg	40	Trial Sequence	1_72	flow.Sequence	modern	2.436807e+05	2.436760e+05	2.415290e+05	2.415286e+05	2.415456e+05	2.436966e+05	2021-05-07T09:03:56.910Z	.	
1	R_1mVPCuFCz0iSzaw	148	human	plain	1	plain human	12	2	1.030721e+03	response	1	.	snowboarder.jpg	1	snowboarder.jpg	41	panel1	1_73_1	html.Screen	cool	2.457311e+05	2.457277e+05	2.446803e+05	2.446817e+05	2.446970e+05	2.457475e+05	2021-05-07T09:03:58.961Z	.	
1	R_1mVPCuFCz0iSzaw	149	human	plain	1	plain human	12	2	2.031161e+03	completion	1	.	snowboarder.jpg	.	snowboarder.jpg	41	Trial Sequence	1_73	flow.Sequence	cool	2.457312e+05	2.457277e+05	2.436799e+05	2.436808e+05	2.436966e+05	2.457475e+05	2021-05-07T09:03:58.961Z	.	
1	R_1mVPCuFCz0iSzaw	150	object	balloon	2	balloon object	3	3	1.126799e+03	response	1	.	mug_b.jpg	0	mug_b.jpg	27	panel1	1_74_1	html.Screen	plain	2.478796e+05	2.478747e+05	2.467312e+05	2.467326e+05	2.467479e+05	2.478817e+05	2021-05-07T09:04:01.109Z	.	
1	R_1mVPCuFCz0iSzaw	151	object	balloon	2	balloon object	3	3	2.127239e+03	completion	1	.	mug_b.jpg	.	mug_b.jpg	27	Trial Sequence	1_74	flow.Sequence	plain	2.478799e+05	2.478747e+05	2.457308e+05	2.457313e+05	2.457475e+05	2.478817e+05	2021-05-07T09:04:01.110Z	.	
1	R_1mVPCuFCz0iSzaw	152	object	label	3	label object	8	3	1.627297e+03	response	1	.	sail_l.jpg	0	sail_l.jpg	35	panel1	1_75_1	html.Screen	radient	2.505128e+05	2.505095e+05	2.488655e+05	2.488662e+05	2.488822e+05	2.505162e+05	2021-05-07T09:04:03.742Z	.	
1	R_1mVPCuFCz0iSzaw	153	object	label	3	label object	8	3	2.627737e+03	completion	1	.	sail_l.jpg	.	sail_l.jpg	35	Trial Sequence	1_75	flow.Sequence	radient	2.505130e+05	2.505095e+05	2.478651e+05	2.478801e+05	2.478817e+05	2.505162e+05	2021-05-07T09:04:03.743Z	.	
1	R_1mVPCuFCz0iSzaw	154	human	plain	1	plain human	12	2	1.056220e+03	response	1	.	women.jpg	1	women.jpg	48	panel1	1_76_1	html.Screen	great	2.526106e+05	2.525724e+05	2.514995e+05	2.515014e+05	2.515162e+05	2.526167e+05	2021-05-07T09:04:05.840Z	.	
1	R_1mVPCuFCz0iSzaw	155	human	plain	1	plain human	12	2	2.056170e+03	completion	1	.	women.jpg	.	women.jpg	48	Trial Sequence	1_76	flow.Sequence	great	2.526108e+05	2.525724e+05	2.504996e+05	2.505131e+05	2.505162e+05	2.526167e+05	2021-05-07T09:04:05.840Z	.	
1	R_1mVPCuFCz0iSzaw	156	human	label	3	label human	7	2	2.048266e+03	response	1	.	buisness_women_l.jpg	1	buisness_women_l.jpg	11	panel1	1_77_1	html.Screen	fair	2.556697e+05	2.556654e+05	2.536004e+05	2.536011e+05	2.536171e+05	2.556847e+05	2021-05-07T09:04:08.899Z	.	
1	R_1mVPCuFCz0iSzaw	157	human	label	3	label human	7	2	3.048706e+03	completion	1	.	buisness_women_l.jpg	.	buisness_women_l.jpg	11	Trial Sequence	1_77	flow.Sequence	fair	2.556699e+05	2.556654e+05	252600	2.526109e+05	2.526167e+05	2.556847e+05	2021-05-07T09:04:08.900Z	.	
1	R_1mVPCuFCz0iSzaw	158	object	plain	1	plain object	13	3	1.614005e+03	response	1	.	bicycle.jpg	0	bicycle.jpg	7	panel1	1_78_1	html.Screen	awesome	2.583386e+05	2.582991e+05	2.566685e+05	2.566695e+05	2.566851e+05	2.583525e+05	2021-05-07T09:04:11.568Z	.	
1	R_1mVPCuFCz0iSzaw	159	object	plain	1	plain object	13	3	2.614445e+03	completion	1	.	bicycle.jpg	.	bicycle.jpg	7	Trial Sequence	1_78	flow.Sequence	awesome	2.583388e+05	2.582991e+05	2.556680e+05	2.556701e+05	2.556847e+05	2.583525e+05	2021-05-07T09:04:11.568Z	.	
1	R_1mVPCuFCz0iSzaw	160	animal	label	3	label animal	6	1	1.400095e+03	response	1	.	cook_l.jpg	0	cook_l.jpg	17	panel1	1_79_1	html.Screen	old	2.607569e+05	2.607531e+05	2.593363e+05	2.593378e+05	2.593530e+05	2.607640e+05	2021-05-07T09:04:13.987Z	.	
1	R_1mVPCuFCz0iSzaw	161	animal	label	3	label animal	6	1	2.400535e+03	completion	1	.	cook_l.jpg	.	cook_l.jpg	17	Trial Sequence	1_79	flow.Sequence	old	2.607571e+05	2.607531e+05	2.583359e+05	2.583389e+05	2.583525e+05	2.607640e+05	2021-05-07T09:04:13.987Z	.	
1	R_1mVPCuFCz0iSzaw	162	object	label	3	label object	8	3	2.146555e+03	response	1	.	mug_l.jpg	1	mug_l.jpg	27	panel1	1_80_1	html.Screen	plain	2.639156e+05	2.639110e+05	2.617477e+05	2.617500e+05	2.617644e+05	2.639320e+05	2021-05-07T09:04:17.145Z	.	
1	R_1mVPCuFCz0iSzaw	163	object	label	3	label object	8	3	3.146995e+03	completion	1	.	mug_l.jpg	.	mug_l.jpg	27	Trial Sequence	1_80	flow.Sequence	plain	2.639158e+05	2.639110e+05	2.607473e+05	2.607572e+05	2.607640e+05	2.639320e+05	2021-05-07T09:04:17.145Z	.	
1	R_1mVPCuFCz0iSzaw	164	animal	label	3	label animal	6	1	1.309445e+03	response	1	.	lion_l.jpg	1	lion_l.jpg	25	panel1	1_81_1	html.Screen	loud	2.662479e+05	2.662419e+05	2.649158e+05	2.649175e+05	2.649325e+05	2.662497e+05	2021-05-07T09:04:19.478Z	.	
1	R_1mVPCuFCz0iSzaw	165	animal	label	3	label animal	6	1	2.309885e+03	completion	1	.	lion_l.jpg	.	lion_l.jpg	25	Trial Sequence	1_81	flow.Sequence	loud	2.662481e+05	2.662419e+05	2.639154e+05	2.639159e+05	2.639320e+05	2.662497e+05	2021-05-07T09:04:19.478Z	.	
1	R_1mVPCuFCz0iSzaw	166	human	balloon	2	balloon human	2	2	1.392664e+03	response	1	.	small_boy_b.jpg	1	small_boy_b.jpg	39	panel1	1_82_1	html.Screen	ordinairy	2.686471e+05	2.686428e+05	2.672335e+05	2.672351e+05	2.672502e+05	2.686508e+05	2021-05-07T09:04:21.877Z	.	
1	R_1mVPCuFCz0iSzaw	167	human	balloon	2	balloon human	2	2	2.393104e+03	completion	1	.	small_boy_b.jpg	.	small_boy_b.jpg	39	Trial Sequence	1_82	flow.Sequence	ordinairy	2.686472e+05	2.686428e+05	2.662330e+05	2.662482e+05	2.662497e+05	2.686508e+05	2021-05-07T09:04:21.877Z	.	
1	R_1mVPCuFCz0iSzaw	168	object	balloon	2	balloon object	3	3	3.238263e+03	response	1	.	bicycle_b.jpg	0	bicycle_b.jpg	7	panel1	1_83_1	html.Screen	awesome	2.728938e+05	2.728895e+05	2.696345e+05	2.696355e+05	2.696512e+05	2.729105e+05	2021-05-07T09:04:26.123Z	.	
1	R_1mVPCuFCz0iSzaw	169	object	balloon	2	balloon object	3	3	4.238703e+03	completion	1	.	bicycle_b.jpg	.	bicycle_b.jpg	7	Trial Sequence	1_83	flow.Sequence	awesome	2.728939e+05	2.728895e+05	2.686341e+05	2.686473e+05	2.686508e+05	2.729105e+05	2021-05-07T09:04:26.124Z	.	
1	R_1mVPCuFCz0iSzaw	170	object	plain	1	plain object	13	3	9.409490e+02	response	1	.	mug .jpg	1	mug .jpg	27	panel1	1_84_1	html.Screen	plain	2.748550e+05	2.748518e+05	2.738942e+05	2.738956e+05	2.739109e+05	2.748613e+05	2021-05-07T09:04:28.085Z	.	
1	R_1mVPCuFCz0iSzaw	171	object	plain	1	plain object	13	3	1.941389e+03	completion	1	.	mug .jpg	.	mug .jpg	27	Trial Sequence	1_84	flow.Sequence	plain	2.748553e+05	2.748518e+05	2.728938e+05	2.728939e+05	2.729105e+05	2.748613e+05	2021-05-07T09:04:28.085Z	.	
1	R_1mVPCuFCz0iSzaw	172	plant	plain	1	plain plant	14	4	1.387616e+03	response	1	.	cactus.jpg	1	cactus.jpg	13	panel1	1_85_1	html.Screen	huge	2.772540e+05	2.772494e+05	2.758451e+05	2.758470e+05	2.758617e+05	2.772624e+05	2021-05-07T09:04:30.484Z	.	
1	R_1mVPCuFCz0iSzaw	173	plant	plain	1	plain plant	14	4	2.388056e+03	completion	1	.	cactus.jpg	.	cactus.jpg	13	Trial Sequence	1_85	flow.Sequence	huge	2.772541e+05	2.772494e+05	2.748446e+05	2.748554e+05	2.748613e+05	2.772624e+05	2021-05-07T09:04:30.484Z	.	
1	R_1mVPCuFCz0iSzaw	174	filler	filler	4	filler	16	6	3.468615e+03	response	1	.	filler3.jpg	1	filler3.jpg	47	panel1	1_86_1	html.Screen	filler	2.817358e+05	2.817314e+05	2.782461e+05	2.782485e+05	2.782628e+05	2.817547e+05	2021-05-07T09:04:34.966Z	.	
1	R_1mVPCuFCz0iSzaw	175	filler	filler	4	filler	16	6	4.469055e+03	completion	1	.	filler3.jpg	.	filler3.jpg	47	Trial Sequence	1_86	flow.Sequence	filler	2.817360e+05	2.817314e+05	2.772457e+05	2.772542e+05	2.772624e+05	2.817547e+05	2021-05-07T09:04:34.966Z	.	
1	R_1mVPCuFCz0iSzaw	176	robot	plain	1	plain robot	15	5	1.408919e+03	response	1	.	nao_robo.jpg	1	nao_robo.jpg	29	panel1	1_87_1	html.Screen	cool	2.841679e+05	2.841640e+05	2.827384e+05	2.827403e+05	2.827551e+05	2.841724e+05	2021-05-07T09:04:37.398Z	.	
1	R_1mVPCuFCz0iSzaw	177	robot	plain	1	plain robot	15	5	2.409359e+03	completion	1	.	nao_robo.jpg	.	nao_robo.jpg	29	Trial Sequence	1_87	flow.Sequence	cool	2.841681e+05	2.841640e+05	2.817380e+05	2.817361e+05	2.817547e+05	2.841724e+05	2021-05-07T09:04:37.398Z	.	
1	R_1mVPCuFCz0iSzaw	178	object	label	3	label object	8	3	2.378059e+03	response	1	.	harpe_l.jpg	0	harpe_l.jpg	22	panel1	1_88_1	html.Screen	loud	2.875562e+05	2.875509e+05	2.851562e+05	2.851572e+05	2.851728e+05	2.875572e+05	2021-05-07T09:04:40.786Z	.	
1	R_1mVPCuFCz0iSzaw	179	object	label	3	label object	8	3	3.378499e+03	completion	1	.	harpe_l.jpg	.	harpe_l.jpg	22	Trial Sequence	1_88	flow.Sequence	loud	2.875563e+05	2.875509e+05	2.841557e+05	2.841682e+05	2.841724e+05	2.875572e+05	2021-05-07T09:04:40.786Z	.	
1	R_1mVPCuFCz0iSzaw	180	human	label	3	label human	7	2	3.022537e+03	response	1	.	hula_girl_l.jpg	0	hula_girl_l.jpg	23	panel1	1_89_1	html.Screen	plain	2.915834e+05	2.915802e+05	2.885410e+05	2.885420e+05	2.885577e+05	2.915984e+05	2021-05-07T09:04:44.813Z	.	
1	R_1mVPCuFCz0iSzaw	181	human	label	3	label human	7	2	4.022977e+03	completion	1	.	hula_girl_l.jpg	.	hula_girl_l.jpg	23	Trial Sequence	1_89	flow.Sequence	plain	2.915836e+05	2.915802e+05	2.875405e+05	2.875565e+05	2.875572e+05	2.915984e+05	2021-05-07T09:04:44.813Z	.	
1	R_1mVPCuFCz0iSzaw	182	human	plain	1	plain human	12	2	1.867312e+03	response	1	.	buisness_women.jpg	1	buisness_women.jpg	11	panel1	1_90_1	html.Screen	fair	2.944698e+05	2.944661e+05	2.925822e+05	2.925839e+05	2.925988e+05	2.944830e+05	2021-05-07T09:04:47.699Z	.	
1	R_1mVPCuFCz0iSzaw	183	human	plain	1	plain human	12	2	2.867752e+03	completion	1	.	buisness_women.jpg	.	buisness_women.jpg	11	Trial Sequence	1_90	flow.Sequence	fair	2.944700e+05	2.944661e+05	2.915817e+05	2.915837e+05	2.915984e+05	2.944830e+05	2021-05-07T09:04:47.700Z	.	
1	R_1mVPCuFCz0iSzaw	184	plant	label	3	label plant	9	4	1.968570e+03	response	1	.	rose_l.jpg	0	rose_l.jpg	34	panel1	1_91_1	html.Screen	ideal	2.974560e+05	2.974520e+05	2.954668e+05	2.954681e+05	2.954834e+05	2.974676e+05	2021-05-07T09:04:50.686Z	.	
1	R_1mVPCuFCz0iSzaw	185	plant	label	3	label plant	9	4	2.969010e+03	completion	1	.	rose_l.jpg	.	rose_l.jpg	34	Trial Sequence	1_91	flow.Sequence	ideal	2.974561e+05	2.974520e+05	2.944663e+05	2.944701e+05	2.944830e+05	2.974676e+05	2021-05-07T09:04:50.686Z	.	
1	R_1mVPCuFCz0iSzaw	186	object	plain	1	plain object	13	3	1.069689e+03	response	1	.	chair.jpg	1	chair.jpg	16	panel1	1_92_1	html.Screen	basic	2.995443e+05	2.995378e+05	2.984514e+05	2.984523e+05	2.984681e+05	2.995519e+05	2021-05-07T09:04:52.774Z	.	
1	R_1mVPCuFCz0iSzaw	187	object	plain	1	plain object	13	3	2.070129e+03	completion	1	.	chair.jpg	.	chair.jpg	16	Trial Sequence	1_92	flow.Sequence	basic	2.995445e+05	2.995378e+05	2.974510e+05	2.974562e+05	2.974676e+05	2.995519e+05	2021-05-07T09:04:52.774Z	.	
1	R_1mVPCuFCz0iSzaw	188	robot	balloon	2	balloon robot	5	5	3.835209e+03	response	1	.	astronaut_robo_b.jpg	0	astronaut_robo_b.jpg	4	panel1	1_93_1	html.Screen	wonderful	3.043909e+05	3.043875e+05	3.005357e+05	3.005379e+05	3.005523e+05	3.044078e+05	2021-05-07T09:04:57.621Z	.	
1	R_1mVPCuFCz0iSzaw	189	robot	balloon	2	balloon robot	5	5	4.835649e+03	completion	1	.	astronaut_robo_b.jpg	.	astronaut_robo_b.jpg	4	Trial Sequence	1_93	flow.Sequence	wonderful	3.043910e+05	3.043875e+05	2.995352e+05	2.995446e+05	2.995519e+05	3.044078e+05	2021-05-07T09:04:57.621Z	.	
1	R_1mVPCuFCz0iSzaw	190	object	plain	1	plain object	13	3	1.290138e+03	response	1	.	telephone.jpg	1	telephone.jpg	45	panel1	1_94_1	html.Screen	old	3.067017e+05	3.066983e+05	3.053915e+05	3.053935e+05	3.054082e+05	3.067088e+05	2021-05-07T09:04:59.931Z	.	
1	R_1mVPCuFCz0iSzaw	191	object	plain	1	plain object	13	3	2.290578e+03	completion	1	.	telephone.jpg	.	telephone.jpg	45	Trial Sequence	1_94	flow.Sequence	old	3.067019e+05	3.066983e+05	3.043911e+05	3.043912e+05	3.044078e+05	3.067088e+05	2021-05-07T09:04:59.932Z	.	
1	R_1mVPCuFCz0iSzaw	192	plant	balloon	2	balloon plant	4	4	1.236911e+03	response	1	.	tulip_b.jpg	0	tulip_b.jpg	46	panel1	1_95_1	html.Screen	modern	3.089525e+05	3.089461e+05	3.076925e+05	3.076945e+05	3.077092e+05	3.089598e+05	2021-05-07T09:05:02.182Z	.	
1	R_1mVPCuFCz0iSzaw	193	plant	balloon	2	balloon plant	4	4	2.237351e+03	completion	1	.	tulip_b.jpg	.	tulip_b.jpg	46	Trial Sequence	1_95	flow.Sequence	modern	3.089527e+05	3.089461e+05	3.066921e+05	3.067020e+05	3.067088e+05	3.089598e+05	2021-05-07T09:05:02.182Z	.	
1	R_1mVPCuFCz0iSzaw	194	human	balloon	2	balloon human	2	2	8.129966e+03	response	1	.	hula_girl_b.jpg	0	hula_girl_b.jpg	23	panel1	1_96_1	html.Screen	plain	3.180953e+05	3.180902e+05	3.099435e+05	3.099453e+05	3.099602e+05	3.181021e+05	2021-05-07T09:05:11.325Z	.	
1	R_1mVPCuFCz0iSzaw	195	human	balloon	2	balloon human	2	2	9.130406e+03	completion	1	.	hula_girl_b.jpg	.	hula_girl_b.jpg	23	Trial Sequence	1_96	flow.Sequence	plain	3.180955e+05	3.180902e+05	3.089431e+05	3.089528e+05	3.089598e+05	3.181021e+05	2021-05-07T09:05:11.325Z	.	
1	R_1mVPCuFCz0iSzaw	196	robot	plain	1	plain robot	15	5	2.203251e+03	response	1	.	rolling_robo.jpg	0	rolling_robo.jpg	33	panel1	1_97_1	html.Screen	huge	3.213103e+05	3.213058e+05	3.190858e+05	3.190869e+05	3.191025e+05	3.213202e+05	2021-05-07T09:05:14.540Z	.	
1	R_1mVPCuFCz0iSzaw	197	robot	plain	1	plain robot	15	5	3.203691e+03	completion	1	.	rolling_robo.jpg	.	rolling_robo.jpg	33	Trial Sequence	1_97	flow.Sequence	huge	3.213105e+05	3.213058e+05	3.180854e+05	3.180956e+05	3.181021e+05	3.213202e+05	2021-05-07T09:05:14.540Z	.	
1	R_1mVPCuFCz0iSzaw	198	robot	balloon	2	balloon robot	5	5	5.888579e+03	response	1	.	cute_r_b.jpg	1	cute_r_b.jpg	20	panel1	1_98_1	html.Screen	cute	3.282140e+05	3.282092e+05	3.223039e+05	3.223057e+05	3.223206e+05	3.282229e+05	2021-05-07T09:05:21.444Z	.	
1	R_1mVPCuFCz0iSzaw	199	robot	balloon	2	balloon robot	5	5	6.889019e+03	completion	1	.	cute_r_b.jpg	.	cute_r_b.jpg	20	Trial Sequence	1_98	flow.Sequence	cute	3.282143e+05	3.282092e+05	3.213035e+05	3.213106e+05	3.213202e+05	3.282229e+05	2021-05-07T09:05:21.444Z	.	
1	R_1mVPCuFCz0iSzaw	200	object	balloon	2	balloon object	3	3	5.450529e+03	response	1	.	drum_sticks_b.jpg	0	drum_sticks_b.jpg	21	panel1	1_99_1	html.Screen	great	3.346780e+05	3.346739e+05	3.292067e+05	3.292075e+05	3.292234e+05	3.346918e+05	2021-05-07T09:05:27.908Z	.	
1	R_1mVPCuFCz0iSzaw	201	object	balloon	2	balloon object	3	3	6.450969e+03	completion	1	.	drum_sticks_b.jpg	.	drum_sticks_b.jpg	21	Trial Sequence	1_99	flow.Sequence	great	3.346782e+05	3.346739e+05	3.282063e+05	3.282146e+05	3.282229e+05	3.346918e+05	2021-05-07T09:05:27.908Z	.	
1	R_1mVPCuFCz0iSzaw	202	plant	balloon	2	balloon plant	4	4	1.213972e+03	response	1	.	sprout_b.jpg	0	sprout_b.jpg	42	panel1	1_100_1	html.Screen	basic	3.369095e+05	3.369063e+05	3.356756e+05	3.356773e+05	3.356923e+05	3.369262e+05	2021-05-07T09:05:30.139Z	.	
1	R_1mVPCuFCz0iSzaw	203	plant	balloon	2	balloon plant	4	4	2.214412e+03	completion	1	.	sprout_b.jpg	.	sprout_b.jpg	42	Trial Sequence	1_100	flow.Sequence	basic	3.369097e+05	3.369063e+05	3.346752e+05	3.346783e+05	3.346918e+05	3.369262e+05	2021-05-07T09:05:30.139Z	.	
1	R_1mVPCuFCz0iSzaw	204	object	balloon	2	balloon object	3	3	1.039446e+03	response	1	.	telephone_b.jpg	0	telephone_b.jpg	45	panel1	1_101_1	html.Screen	old	3.389703e+05	3.389660e+05	3.379099e+05	3.379109e+05	3.379266e+05	3.389771e+05	2021-05-07T09:05:32.200Z	.	
1	R_1mVPCuFCz0iSzaw	205	object	balloon	2	balloon object	3	3	2.039886e+03	completion	1	.	telephone_b.jpg	.	telephone_b.jpg	45	Trial Sequence	1_101	flow.Sequence	old	3.389704e+05	3.389660e+05	3.369095e+05	3.369099e+05	3.369262e+05	3.389771e+05	2021-05-07T09:05:32.200Z	.	
1	R_1mVPCuFCz0iSzaw	206	robot	label	3	label robot	10	5	1.497819e+04	response	1	.	star_track_robo_l.jpg	0	star_track_robo_l.jpg	44	panel1	1_102_1	html.Screen	fair	3.549599e+05	3.549557e+05	3.399608e+05	3.399614e+05	3.399775e+05	3.549652e+05	2021-05-07T09:05:48.190Z	.	
1	R_1mVPCuFCz0iSzaw	207	robot	label	3	label robot	10	5	1.597863e+04	completion	1	.	star_track_robo_l.jpg	.	star_track_robo_l.jpg	44	Trial Sequence	1_102	flow.Sequence	fair	3.549601e+05	3.549557e+05	3.389604e+05	3.389705e+05	3.389771e+05	3.549652e+05	2021-05-07T09:05:48.190Z	.	
1	R_1mVPCuFCz0iSzaw	208	human	plain	1	plain human	12	2	2.433829e+03	response	1	.	buisness_man.jpg	1	buisness_man.jpg	10	panel1	1_103_1	html.Screen	handsome	3.584033e+05	3.583994e+05	3.559489e+05	3.559526e+05	3.559656e+05	3.584167e+05	2021-05-07T09:05:51.633Z	.	
1	R_1mVPCuFCz0iSzaw	209	human	plain	1	plain human	12	2	3.434269e+03	completion	1	.	buisness_man.jpg	.	buisness_man.jpg	10	Trial Sequence	1_103	flow.Sequence	handsome	3.584035e+05	3.583994e+05	3.549485e+05	3.549602e+05	3.549652e+05	3.584167e+05	2021-05-07T09:05:51.633Z	.	
1	R_1mVPCuFCz0iSzaw	210	animal	plain	1	plain animal	11	1	1.286361e+03	response	1	.	crab.jpg	1	crab.jpg	19	panel1	1_104_1	html.Screen	small	3.607067e+05	3.607035e+05	3.594005e+05	3.594090e+05	3.594171e+05	3.607177e+05	2021-05-07T09:05:53.936Z	.	
1	R_1mVPCuFCz0iSzaw	211	animal	plain	1	plain animal	11	1	2.286801e+03	completion	1	.	crab.jpg	.	crab.jpg	19	Trial Sequence	1_104	flow.Sequence	small	3.607069e+05	3.607035e+05	3.584000e+05	3.584036e+05	3.584167e+05	3.607177e+05	2021-05-07T09:05:53.937Z	.	
1	R_1mVPCuFCz0iSzaw	212	human	balloon	2	balloon human	2	2	2.160054e+03	response	1	.	skater_b.jpg	1	skater_b.jpg	38	panel1	1_105_1	html.Screen	impressive	3.638818e+05	3.638782e+05	3.617015e+05	3.617034e+05	3.617182e+05	3.638858e+05	2021-05-07T09:05:57.112Z	.	
1	R_1mVPCuFCz0iSzaw	213	human	balloon	2	balloon human	2	2	3.160494e+03	completion	1	.	skater_b.jpg	.	skater_b.jpg	38	Trial Sequence	1_105	flow.Sequence	impressive	3.638820e+05	3.638782e+05	3.607010e+05	3.607070e+05	3.607177e+05	3.638858e+05	2021-05-07T09:05:57.112Z	.	
1	R_1mVPCuFCz0iSzaw	214	object	balloon	2	balloon object	3	3	1.328293e+03	response	1	.	axe_b.jpg	0	axe_b.jpg	5	panel1	1_106_1	html.Screen	ideal	3.662182e+05	3.662142e+05	3.648693e+05	3.648709e+05	3.648859e+05	3.662199e+05	2021-05-07T09:05:59.448Z	.	
1	R_1mVPCuFCz0iSzaw	215	object	balloon	2	balloon object	3	3	2.328464e+03	completion	1	.	axe_b.jpg	.	axe_b.jpg	5	Trial Sequence	1_106	flow.Sequence	ideal	3.662185e+05	3.662142e+05	3.638691e+05	3.638821e+05	3.638858e+05	3.662199e+05	2021-05-07T09:05:59.448Z	.	
1	R_1mVPCuFCz0iSzaw	216	animal	label	3	label animal	6	1	1.351678e+03	response	1	.	cat_l.jpg	1	cat_l.jpg	15	panel1	1_107_1	html.Screen	cute	3.685759e+05	3.685720e+05	3.672036e+05	3.672051e+05	3.672203e+05	3.685876e+05	2021-05-07T09:06:01.806Z	.	
1	R_1mVPCuFCz0iSzaw	217	animal	label	3	label animal	6	1	2.352118e+03	completion	1	.	cat_l.jpg	.	cat_l.jpg	15	Trial Sequence	1_107	flow.Sequence	cute	3.685761e+05	3.685720e+05	3.662032e+05	3.662186e+05	3.662199e+05	3.685876e+05	2021-05-07T09:06:01.806Z	.	
1	R_1mVPCuFCz0iSzaw	218	robot	balloon	2	balloon robot	6	5	2.667045e+03	response	1	.	antenne_robo_b.jpg	1	antenne_robo_b.jpg	2	panel1	1_108_1	html.Screen	sweet	3.722593e+05	3.722551e+05	3.695713e+05	3.695721e+05	3.695880e+05	3.722725e+05	2021-05-07T09:06:05.489Z	.	
1	R_1mVPCuFCz0iSzaw	219	robot	balloon	2	balloon robot	6	5	3.667485e+03	completion	1	.	antenne_robo_b.jpg	.	antenne_robo_b.jpg	2	Trial Sequence	1_108	flow.Sequence	sweet	3.722595e+05	3.722551e+05	3.685709e+05	3.685762e+05	3.685876e+05	3.722725e+05	2021-05-07T09:06:05.489Z	.	
1	R_1mVPCuFCz0iSzaw	220	robot	balloon	2	balloon robot	5	5	3.603751e+03	response	1	.	small_robo_b.jpg	0	small_robo_b.jpg	40	panel1	1_109_1	html.Screen	modern	3.768822e+05	3.768767e+05	3.732563e+05	3.732587e+05	3.732730e+05	3.768933e+05	2021-05-07T09:06:10.112Z	.	
1	R_1mVPCuFCz0iSzaw	221	robot	balloon	2	balloon robot	5	5	4.604191e+03	completion	1	.	small_robo_b.jpg	.	small_robo_b.jpg	40	Trial Sequence	1_109	flow.Sequence	modern	3.768823e+05	3.768767e+05	3.722558e+05	3.722596e+05	3.722725e+05	3.768933e+05	2021-05-07T09:06:10.112Z	.	
1	R_1mVPCuFCz0iSzaw	222	human	balloon	2	balloon human	2	2	1.446126e+03	response	1	.	buisness_man_b.jpg	1	buisness_man_b.jpg	10	panel1	1_110_1	html.Screen	handsome	3.793436e+05	3.793399e+05	3.778771e+05	3.778786e+05	3.778937e+05	3.793611e+05	2021-05-07T09:06:12.573Z	.	
1	R_1mVPCuFCz0iSzaw	223	human	balloon	2	balloon human	2	2	2.446566e+03	completion	1	.	buisness_man_b.jpg	.	buisness_man_b.jpg	10	Trial Sequence	1_110	flow.Sequence	handsome	3.793438e+05	3.793399e+05	3.768766e+05	3.768824e+05	3.768933e+05	3.793611e+05	2021-05-07T09:06:12.574Z	.	
1	R_1mVPCuFCz0iSzaw	224	plant	plain	1	plain plant	14	4	1.742394e+03	response	1	.	rose.jpg	1	rose.jpg	34	panel1	1_111_1	html.Screen	ideal	3.821069e+05	3.821039e+05	3.803448e+05	3.803464e+05	3.803615e+05	3.821123e+05	2021-05-07T09:06:15.337Z	.	
1	R_1mVPCuFCz0iSzaw	225	plant	plain	1	plain plant	14	4	2.742834e+03	completion	1	.	rose.jpg	.	rose.jpg	34	Trial Sequence	1_111	flow.Sequence	ideal	3.821070e+05	3.821039e+05	3.793444e+05	3.793439e+05	3.793611e+05	3.821123e+05	2021-05-07T09:06:15.337Z	.	
1	R_1mVPCuFCz0iSzaw	226	human	plain	1	plain human	12	2	1.512924e+03	response	1	.	small_boy .jpg	1	small_boy .jpg	39	panel1	1_112_1	html.Screen	ordinary	3.846298e+05	3.846256e+05	3.830960e+05	3.830978e+05	3.831127e+05	3.846467e+05	2021-05-07T09:06:17.859Z	.	
1	R_1mVPCuFCz0iSzaw	227	human	plain	1	plain human	12	2	2.513364e+03	completion	1	.	small_boy .jpg	.	small_boy .jpg	39	Trial Sequence	1_112	flow.Sequence	ordinary	3.846301e+05	3.846256e+05	3.820956e+05	3.821071e+05	3.821123e+05	3.846467e+05	2021-05-07T09:06:17.860Z	.	
1	R_1mVPCuFCz0iSzaw	228	filler	filler	4	filler	16	6	3.156706e+03	response	1	.	filler2.jpg	0	filler2.jpg	47	panel1	1_113_1	html.Screen	filler	3.887995e+05	3.887956e+05	3.856222e+05	3.856239e+05	3.856389e+05	3.888070e+05	2021-05-07T09:06:22.029Z	.	
1	R_1mVPCuFCz0iSzaw	229	filler	filler	4	filler	16	6	4.148916e+03	completion	1	.	filler2.jpg	.	filler2.jpg	47	Trial Sequence	1_113	flow.Sequence	filler	3.887997e+05	3.887956e+05	3.846300e+05	3.846302e+05	3.846467e+05	3.888070e+05	2021-05-07T09:06:22.029Z	.	
1	R_1mVPCuFCz0iSzaw	230	human	label	3	label human	7	2	2.550796e+03	response	1	.	model_l.jpg	0	model_l.jpg	26	panel1	1_114_1	html.Screen	okay	3.923633e+05	3.923582e+05	3.897907e+05	3.897924e+05	3.898074e+05	3.923752e+05	2021-05-07T09:06:25.593Z	.	
1	R_1mVPCuFCz0iSzaw	231	human	label	3	label human	7	2	3.551236e+03	completion	1	.	model_l.jpg	.	model_l.jpg	26	Trial Sequence	1_114	flow.Sequence	okay	3.923635e+05	3.923582e+05	3.887903e+05	3.887998e+05	3.888070e+05	3.923752e+05	2021-05-07T09:06:25.593Z	.	
1	R_1mVPCuFCz0iSzaw	232	object	label	3	label object	8	3	1.748195e+03	response	1	.	telephone_l.jpg	1	telephone_l.jpg	45	panel1	1_115_1	html.Screen	old	3.951283e+05	3.951238e+05	3.933590e+05	3.933599e+05	3.933757e+05	3.951431e+05	2021-05-07T09:06:28.358Z	.	
1	R_1mVPCuFCz0iSzaw	233	object	label	3	label object	8	3	2.748635e+03	completion	1	.	telephone_l.jpg	.	telephone_l.jpg	45	Trial Sequence	1_115	flow.Sequence	old	3.951284e+05	3.951238e+05	3.923585e+05	3.923636e+05	3.923752e+05	3.951431e+05	2021-05-07T09:06:28.358Z	.	
1	R_1mVPCuFCz0iSzaw	234	human	label	3	label human	7	2	1.250206e+03	response	1	.	buisness_man_l.jpg	1	buisness_man_l.jpg	10	panel1	1_116_1	html.Screen	handsome	3.974000e+05	3.973965e+05	3.961296e+05	3.961310e+05	3.961463e+05	3.974135e+05	2021-05-07T09:06:30.630Z	.	
1	R_1mVPCuFCz0iSzaw	235	human	label	3	label human	7	2	2.253421e+03	completion	1	.	buisness_man_l.jpg	.	buisness_man_l.jpg	10	Trial Sequence	1_116	flow.Sequence	handsome	3.974002e+05	3.973965e+05	3.951264e+05	3.951285e+05	3.951431e+05	3.974135e+05	2021-05-07T09:06:30.630Z	.	
1	R_1mVPCuFCz0iSzaw	236	plant	label	3	label plant	9	4	2.350542e+03	response	1	.	cactus_l.jpg	1	cactus_l.jpg	13	panel1	1_117_1	html.Screen	huge	4.007693e+05	4.007645e+05	3.983973e+05	3.983987e+05	3.984140e+05	4.007817e+05	2021-05-07T09:06:33.999Z	.	
1	R_1mVPCuFCz0iSzaw	237	plant	label	3	label plant	9	4	3.350982e+03	completion	1	.	cactus_l.jpg	.	cactus_l.jpg	13	Trial Sequence	1_117	flow.Sequence	huge	4.007695e+05	4.007645e+05	3.973969e+05	3.974003e+05	3.974135e+05	4.007817e+05	2021-05-07T09:06:33.999Z	.	
1	R_1mVPCuFCz0iSzaw	238	animal	plain	1	plain animal	11	1	1.767124e+03	response	1	.	cook.jpg	0	cook.jpg	17	panel1	1_118_1	html.Screen	old	4.035547e+05	4.035492e+05	4.017655e+05	4.017660e+05	4.017821e+05	4.035662e+05	2021-05-07T09:06:36.784Z	.	
1	R_1mVPCuFCz0iSzaw	239	animal	plain	1	plain animal	11	1	2.767564e+03	completion	1	.	cook.jpg	.	cook.jpg	17	Trial Sequence	1_118	flow.Sequence	old	4.035550e+05	4.035492e+05	4.007650e+05	4.007696e+05	4.007817e+05	4.035662e+05	2021-05-07T09:06:36.785Z	.	
1	R_1mVPCuFCz0iSzaw	240	animal	balloon	2	balloon animal	1	1	1.399586e+03	response	1	.	cat_b.jpg	0	cat_b.jpg	15	panel1	1_119_1	html.Screen	cute	4.059697e+05	4.059663e+05	4.045500e+05	4.045513e+05	4.045667e+05	4.059853e+05	2021-05-07T09:06:39.199Z	.	
1	R_1mVPCuFCz0iSzaw	241	animal	balloon	2	balloon animal	1	1	2.400026e+03	completion	1	.	cat_b.jpg	.	cat_b.jpg	15	Trial Sequence	1_119	flow.Sequence	cute	4.059699e+05	4.059663e+05	4.035496e+05	4.035551e+05	4.035662e+05	4.059853e+05	2021-05-07T09:06:39.200Z	.	
1	R_1mVPCuFCz0iSzaw	242	object	label	3	label object	8	3	1.963289e+03	response	1	.	anker_l.jpg	1	anker_l.jpg	1	panel1	1_120_1	html.Screen	solid	4.089521e+05	4.089490e+05	4.069690e+05	4.069713e+05	4.069857e+05	4.089533e+05	2021-05-07T09:06:42.182Z	.	
1	R_1mVPCuFCz0iSzaw	243	object	label	3	label object	8	3	2.963729e+03	completion	1	.	anker_l.jpg	.	anker_l.jpg	1	Trial Sequence	1_120	flow.Sequence	solid	4.089523e+05	4.089490e+05	4.059686e+05	4.059700e+05	4.059853e+05	4.089533e+05	2021-05-07T09:06:42.182Z	.	
1	R_1mVPCuFCz0iSzaw	244	animal	balloon	2	balloon animal	1	1	1.584347e+03	response	1	.	pinguin_b.jpg	0	pinguin_b.jpg	30	panel1	1_121_1	html.Screen	sweet	4.115439e+05	4.115380e+05	4.099370e+05	4.099390e+05	4.099537e+05	4.115544e+05	2021-05-07T09:06:44.774Z	.	
1	R_1mVPCuFCz0iSzaw	245	animal	balloon	2	balloon animal	1	1	2.584787e+03	completion	1	.	pinguin_b.jpg	.	pinguin_b.jpg	30	Trial Sequence	1_121	flow.Sequence	sweet	4.115441e+05	4.115380e+05	4.089366e+05	4.089524e+05	4.089533e+05	4.115544e+05	2021-05-07T09:06:44.774Z	.	
1	R_1mVPCuFCz0iSzaw	246	plant	balloon	2	balloon plant	4	4	1.763083e+03	response	1	.	rose_b.jpg	0	rose_b.jpg	34	panel1	1_122_1	html.Screen	ideal	4.143226e+05	4.143179e+05	4.125382e+05	4.125395e+05	4.125548e+05	4.143390e+05	2021-05-07T09:06:47.552Z	.	
1	R_1mVPCuFCz0iSzaw	247	plant	balloon	2	balloon plant	4	4	2.763523e+03	completion	1	.	rose_b.jpg	.	rose_b.jpg	34	Trial Sequence	1_122	flow.Sequence	ideal	4.143228e+05	4.143179e+05	4.115377e+05	4.115443e+05	4.115544e+05	4.143390e+05	2021-05-07T09:06:47.552Z	.	
1	R_1mVPCuFCz0iSzaw	248	plant	plain	1	plain plant	14	4	2.198210e+03	response	1	.	shilf.jpg	0	shilf.jpg	36	panel1	1_123_1	html.Screen	ugly	4.175424e+05	4.175376e+05	4.153227e+05	4.153248e+05	4.153394e+05	4.175553e+05	2021-05-07T09:06:50.772Z	.	
1	R_1mVPCuFCz0iSzaw	249	plant	plain	1	plain plant	14	4	3.198650e+03	completion	1	.	shilf.jpg	.	shilf.jpg	36	Trial Sequence	1_123	flow.Sequence	ugly	4.175426e+05	4.175376e+05	4.143223e+05	4.143230e+05	4.143390e+05	4.175553e+05	2021-05-07T09:06:50.772Z	.	
1	R_1mVPCuFCz0iSzaw	250	object	balloon	2	balloon object	3	3	1.456001e+03	response	1	.	harpe_b.jpg	0	harpe_b.jpg	22	panel1	1_124_1	html.Screen	loud	4.200165e+05	4.200117e+05	4.185390e+05	4.185406e+05	4.185557e+05	4.200230e+05	2021-05-07T09:06:53.246Z	.	
1	R_1mVPCuFCz0iSzaw	251	object	balloon	2	balloon object	3	3	2.456441e+03	completion	1	.	harpe_b.jpg	.	harpe_b.jpg	22	Trial Sequence	1_124	flow.Sequence	loud	4.200167e+05	4.200117e+05	4.175386e+05	4.175427e+05	4.175553e+05	4.200230e+05	2021-05-07T09:06:53.246Z	.	
1	R_1mVPCuFCz0iSzaw	252	object	balloon	2	balloon object	3	3	9.149540e+02	response	1	.	sail_b.jpg	0	sail_b.jpg	35	panel1	1_125_1	html.Screen	radient	4.219425e+05	4.219384e+05	4.210068e+05	4.210091e+05	4.210235e+05	4.219572e+05	2021-05-07T09:06:55.172Z	.	
1	R_1mVPCuFCz0iSzaw	253	object	balloon	2	balloon object	3	3	1.915394e+03	completion	1	.	sail_b.jpg	.	sail_b.jpg	35	Trial Sequence	1_125	flow.Sequence	radient	4.219427e+05	4.219384e+05	4.200064e+05	4.200169e+05	4.200230e+05	4.219572e+05	2021-05-07T09:06:55.172Z	.	
1	R_1mVPCuFCz0iSzaw	254	human	balloon	2	balloon human	2	2	1.938620e+03	response	1	.	buisness_women_b.jpg	1	buisness_women_b.jpg	11	panel1	1_126_1	html.Screen	fair	4.248995e+05	4.248963e+05	4.229410e+05	4.229432e+05	4.229577e+05	4.249085e+05	2021-05-07T09:06:58.129Z	.	
1	R_1mVPCuFCz0iSzaw	255	human	balloon	2	balloon human	2	2	2.939060e+03	completion	1	.	buisness_women_b.jpg	.	buisness_women_b.jpg	11	Trial Sequence	1_126	flow.Sequence	fair	4.248998e+05	4.248963e+05	4.219405e+05	4.219428e+05	4.219572e+05	4.249085e+05	2021-05-07T09:06:58.129Z	.	
1	R_1mVPCuFCz0iSzaw	256	robot	plain	1	plain robot	15	5	1.426192e+03	response	1	.	asimov.jpg	0	asimov.jpg	3	panel1	1_127_1	html.Screen	handsome	4.273382e+05	4.273351e+05	4.258923e+05	4.258939e+05	4.259089e+05	4.273485e+05	2021-05-07T09:07:00.568Z	.	
1	R_1mVPCuFCz0iSzaw	257	robot	plain	1	plain robot	15	5	2.426632e+03	completion	1	.	asimov.jpg	.	asimov.jpg	3	Trial Sequence	1_127	flow.Sequence	handsome	4.273384e+05	4.273351e+05	4.248918e+05	4.248999e+05	4.249085e+05	4.273485e+05	2021-05-07T09:07:00.568Z	.	
1	R_1mVPCuFCz0iSzaw	258	object	balloon	2	balloon object	3	3	1.113054e+03	response	1	.	anker_b.jpg	0	anker_b.jpg	1	panel1	1_128_1	html.Screen	solid	4.294654e+05	4.294620e+05	4.283323e+05	4.283341e+05	4.283490e+05	4.294828e+05	2021-05-07T09:07:02.695Z	.	
1	R_1mVPCuFCz0iSzaw	259	object	balloon	2	balloon object	3	3	2.113494e+03	completion	1	.	anker_b.jpg	.	anker_b.jpg	1	Trial Sequence	1_128	flow.Sequence	solid	4.294656e+05	4.294620e+05	4.273319e+05	4.273384e+05	4.273485e+05	4.294828e+05	2021-05-07T09:07:02.695Z	.	
1	R_1mVPCuFCz0iSzaw	260	plant	label	3	label plant	9	4	1.721962e+03	response	1	.	potted_plant_l.jpg	0	potted_plant_l.jpg	31	panel1	1_129_1	html.Screen	wonderful	4.322106e+05	4.322052e+05	4.304666e+05	4.304680e+05	4.304833e+05	4.322173e+05	2021-05-07T09:07:05.440Z	.	
1	R_1mVPCuFCz0iSzaw	261	plant	label	3	label plant	9	4	2.722402e+03	completion	1	.	potted_plant_l.jpg	.	potted_plant_l.jpg	31	Trial Sequence	1_129	flow.Sequence	wonderful	4.322107e+05	4.322052e+05	4.294661e+05	4.294657e+05	4.294828e+05	4.322173e+05	2021-05-07T09:07:05.440Z	.	
1	R_1mVPCuFCz0iSzaw	262	object	label	3	label object	8	3	1.600176e+03	response	1	.	bicycle_l.jpg	0	bicycle_l.jpg	7	panel1	1_130_1	html.Screen	awesome	4.348211e+05	4.348180e+05	4.332011e+05	4.332023e+05	4.332178e+05	4.348352e+05	2021-05-07T09:07:08.051Z	.	
1	R_1mVPCuFCz0iSzaw	263	object	label	3	label object	8	3	2.600616e+03	completion	1	.	bicycle_l.jpg	.	bicycle_l.jpg	7	Trial Sequence	1_130	flow.Sequence	awesome	4.348212e+05	4.348180e+05	4.322007e+05	4.322108e+05	4.322173e+05	4.348352e+05	2021-05-07T09:07:08.051Z	.	
1	R_1mVPCuFCz0iSzaw	264	plant	plain	1	plain plant	14	4	9.692680e+02	response	1	.	tulip.jpg	0	tulip.jpg	46	panel1	1_131_1	html.Screen	modern	4.368081e+05	4.368049e+05	4.358189e+05	4.358199e+05	4.358356e+05	4.368096e+05	2021-05-07T09:07:10.038Z	.	
1	R_1mVPCuFCz0iSzaw	265	plant	plain	1	plain plant	14	4	1.969708e+03	completion	1	.	tulip.jpg	.	tulip.jpg	46	Trial Sequence	1_131	flow.Sequence	modern	4.368083e+05	4.368049e+05	4.348185e+05	4.348213e+05	4.348352e+05	4.368096e+05	2021-05-07T09:07:10.038Z	.	
1	R_1mVPCuFCz0iSzaw	266	robot	balloon	2	balloon robot	5	5	1.382768e+03	response	1	.	asimov_b.jpg	0	asimov_b.jpg	3	panel1	1_132_1	html.Screen	handsome	4.391959e+05	4.391928e+05	4.377934e+05	4.377952e+05	4.378101e+05	4.392107e+05	2021-05-07T09:07:12.426Z	.	
1	R_1mVPCuFCz0iSzaw	267	robot	balloon	2	balloon robot	5	5	2.383208e+03	completion	1	.	asimov_b.jpg	.	asimov_b.jpg	3	Trial Sequence	1_132	flow.Sequence	handsome	4.391961e+05	4.391928e+05	4.367930e+05	4.368084e+05	4.368096e+05	4.392107e+05	2021-05-07T09:07:12.426Z	.	
1	R_1mVPCuFCz0iSzaw	268	animal	balloon	2	balloon animal	1	1	1.011567e+03	response	1	.	rat_b.jpg	0	rat_b.jpg	32	panel1	1_133_1	html.Screen	solid	4.412272e+05	4.412227e+05	4.401944e+05	4.401961e+05	4.402111e+05	4.412282e+05	2021-05-07T09:07:14.457Z	.	
1	R_1mVPCuFCz0iSzaw	269	animal	balloon	2	balloon animal	1	1	2.012007e+03	completion	1	.	rat_b.jpg	.	rat_b.jpg	32	Trial Sequence	1_133	flow.Sequence	solid	4.412274e+05	4.412227e+05	4.391940e+05	4.391962e+05	4.392107e+05	4.412282e+05	2021-05-07T09:07:14.457Z	.	
1	R_1mVPCuFCz0iSzaw	270	animal	plain	1	plain animal	11	1	1.036773e+03	response	1	.	camel.jpg	0	camel.jpg	14	panel1	1_134_1	html.Screen	extraordinairy	4.432700e+05	4.432654e+05	4.422120e+05	4.422143e+05	4.422287e+05	4.432791e+05	2021-05-07T09:07:16.500Z	.	
1	R_1mVPCuFCz0iSzaw	271	animal	plain	1	plain animal	11	1	2.037213e+03	completion	1	.	camel.jpg	.	camel.jpg	14	Trial Sequence	1_134	flow.Sequence	extraordinairy	4.432702e+05	4.432654e+05	4.412116e+05	4.412275e+05	4.412282e+05	4.432791e+05	2021-05-07T09:07:16.500Z	.	
1	R_1mVPCuFCz0iSzaw	272	object	label	3	label object	8	3	1.801726e+03	response	1	.	drum_sticks_l.jpg	1	drum_sticks_l.jpg	21	panel1	1_135_1	html.Screen	great	4.460849e+05	4.460813e+05	4.442629e+05	4.442638e+05	4.442796e+05	4.460970e+05	2021-05-07T09:07:19.315Z	.	
1	R_1mVPCuFCz0iSzaw	273	object	label	3	label object	8	3	2.802166e+03	completion	1	.	drum_sticks_l.jpg	.	drum_sticks_l.jpg	21	Trial Sequence	1_135	flow.Sequence	great	4.460851e+05	4.460813e+05	4.432625e+05	4.432703e+05	4.432791e+05	4.460970e+05	2021-05-07T09:07:19.315Z	.	
1	R_1mVPCuFCz0iSzaw	274	object	balloon	2	balloon object	3	3	1.527734e+03	response	1	.	shoe_b.jpg	0	shoe_b.jpg	37	panel1	1_136_1	html.Screen	ugly	4.486230e+05	4.486193e+05	4.470749e+05	4.470770e+05	4.470916e+05	4.486256e+05	2021-05-07T09:07:21.853Z	.	
1	R_1mVPCuFCz0iSzaw	275	object	balloon	2	balloon object	3	3	2.522300e+03	completion	1	.	shoe_b.jpg	.	shoe_b.jpg	37	Trial Sequence	1_136	flow.Sequence	ugly	4.486232e+05	4.486193e+05	4.460804e+05	4.460852e+05	4.460970e+05	4.486256e+05	2021-05-07T09:07:21.853Z	.	
1	R_1mVPCuFCz0iSzaw	276	robot	plain	1	plain robot	15	5	1.555116e+03	response	1	.	broken_robo.jpg	1	broken_robo.jpg	9	panel1	1_137_1	html.Screen	odd	4.511843e+05	4.511812e+05	4.496094e+05	4.496100e+05	4.496261e+05	4.511934e+05	2021-05-07T09:07:24.414Z	.	
1	R_1mVPCuFCz0iSzaw	277	robot	plain	1	plain robot	15	5	2.555556e+03	completion	1	.	broken_robo.jpg	.	broken_robo.jpg	9	Trial Sequence	1_137	flow.Sequence	odd	4.511845e+05	4.511812e+05	4.486089e+05	4.486232e+05	4.486256e+05	4.511934e+05	2021-05-07T09:07:24.414Z	.	
1	R_1mVPCuFCz0iSzaw	278	robot	label	3	label robot	10	5	2.266190e+03	response	1	.	nao_robo_l.jpg	1	nao_robo_l.jpg	29	panel1	1_138_1	html.Screen	cool	4.544654e+05	4.544600e+05	4.521772e+05	4.521788e+05	4.521939e+05	4.544782e+05	2021-05-07T09:07:27.695Z	.	
1	R_1mVPCuFCz0iSzaw	279	robot	label	3	label robot	10	5	3.266630e+03	completion	1	.	nao_robo_l.jpg	.	nao_robo_l.jpg	29	Trial Sequence	1_138	flow.Sequence	cool	4.544656e+05	4.544600e+05	4.511767e+05	4.511846e+05	4.511934e+05	4.544782e+05	2021-05-07T09:07:27.695Z	.	
1	R_1mVPCuFCz0iSzaw	280	robot	plain	1	plain robot	15	5	1.574332e+03	response	1	.	star_track.jpg	0	star_track.jpg	44	panel1	1_139_1	html.Screen	fair	4.570578e+05	4.570530e+05	4.554620e+05	4.554636e+05	4.554786e+05	4.570735e+05	2021-05-07T09:07:30.287Z	.	
1	R_1mVPCuFCz0iSzaw	281	robot	plain	1	plain robot	15	5	2.574772e+03	completion	1	.	star_track.jpg	.	star_track.jpg	44	Trial Sequence	1_139	flow.Sequence	fair	4.570580e+05	4.570530e+05	4.544615e+05	4.544656e+05	4.544782e+05	4.570735e+05	2021-05-07T09:07:30.288Z	.	
1	R_1mVPCuFCz0iSzaw	282	object	balloon	2	balloon object	3	3	1.072932e+03	response	1	.	bank_b.jpg	0	bank_b.jpg	6	panel1	1_140_1	html.Screen	ordinary	4.591515e+05	4.591469e+05	4.580573e+05	4.580593e+05	4.580739e+05	4.591577e+05	2021-05-07T09:07:32.381Z	.	
1	R_1mVPCuFCz0iSzaw	283	object	balloon	2	balloon object	3	3	2.073372e+03	completion	1	.	bank_b.jpg	.	bank_b.jpg	6	Trial Sequence	1_140	flow.Sequence	ordinary	4.591517e+05	4.591469e+05	4.570568e+05	4.570581e+05	4.570735e+05	4.591577e+05	2021-05-07T09:07:32.381Z	.	
1	R_1mVPCuFCz0iSzaw	284	robot	label	3	label robot	10	5	1.107402e+03	response	1	.	cute_r_l.jpg	1	cute_r_l.jpg	20	panel1	1_141_1	html.Screen	cute	4.612691e+05	4.612656e+05	4.601415e+05	4.601440e+05	4.601582e+05	4.612753e+05	2021-05-07T09:07:34.499Z	.	
1	R_1mVPCuFCz0iSzaw	285	robot	label	3	label robot	10	5	2.107842e+03	completion	1	.	cute_r_l.jpg	.	cute_r_l.jpg	20	Trial Sequence	1_141	flow.Sequence	cute	4.612693e+05	4.612656e+05	4.591411e+05	4.591518e+05	4.591577e+05	4.612753e+05	2021-05-07T09:07:34.499Z	.	
1	R_1mVPCuFCz0iSzaw	286	robot	balloon	2	balloon robot	5	5	1.633864e+03	response	1	.	broken_robo_b.jpg	0	broken_robo_b.jpg	9	panel1	1_142_1	html.Screen	odd	4.639137e+05	4.639096e+05	4.622591e+05	4.622603e+05	4.622758e+05	4.639265e+05	2021-05-07T09:07:37.143Z	.	
1	R_1mVPCuFCz0iSzaw	287	robot	balloon	2	balloon robot	5	5	2.634304e+03	completion	1	.	broken_robo_b.jpg	.	broken_robo_b.jpg	9	Trial Sequence	1_142	flow.Sequence	odd	4.639140e+05	4.639096e+05	4.612587e+05	4.612694e+05	4.612753e+05	4.639265e+05	2021-05-07T09:07:37.144Z	.	
1	R_1mVPCuFCz0iSzaw	288	object	plain	1	plain object	13	3	1.265508e+03	response	1	.	axe.jpg	0	axe.jpg	5	panel1	1_143_1	html.Screen	ideal	4.661975e+05	4.661924e+05	4.649103e+05	4.649119e+05	4.649269e+05	4.662108e+05	2021-05-07T09:07:39.427Z	.	
1	R_1mVPCuFCz0iSzaw	289	object	plain	1	plain object	13	3	2.265948e+03	completion	1	.	axe.jpg	.	axe.jpg	5	Trial Sequence	1_143	flow.Sequence	ideal	4.661978e+05	4.661924e+05	4.639098e+05	4.639141e+05	4.639265e+05	4.662108e+05	2021-05-07T09:07:39.427Z	.	
1	R_1mVPCuFCz0iSzaw	290	filler	filler	4	filler	16	6	6.712405e+03	response	1	.	filler5.jpg	0	filler5.jpg	47	panel1	1_144_1	html.Screen	filler	4.739282e+05	4.739237e+05	4.671946e+05	4.671957e+05	4.672113e+05	4.739395e+05	2021-05-07T09:07:47.158Z	.	
1	R_1mVPCuFCz0iSzaw	291	filler	filler	4	filler	16	6	7.712845e+03	completion	1	.	filler5.jpg	.	filler5.jpg	47	Trial Sequence	1_144	flow.Sequence	filler	4.739285e+05	4.739237e+05	4.661942e+05	4.661979e+05	4.662108e+05	4.739395e+05	2021-05-07T09:07:47.158Z	.	
1	R_1mVPCuFCz0iSzaw	292	human	label	3	label human	7	2	2.345366e+03	response	1	.	skater_l.jpg	0	skater_l.jpg	38	panel1	1_145_1	html.Screen	impressive	4.772904e+05	4.772853e+05	4.749233e+05	4.749249e+05	4.749399e+05	4.773076e+05	2021-05-07T09:07:50.520Z	.	
1	R_1mVPCuFCz0iSzaw	293	human	label	3	label human	7	2	3.345806e+03	completion	1	.	skater_l.jpg	.	skater_l.jpg	38	Trial Sequence	1_145	flow.Sequence	impressive	4.772906e+05	4.772853e+05	4.739228e+05	4.739286e+05	4.739395e+05	4.773076e+05	2021-05-07T09:07:50.520Z	.	
1	R_1mVPCuFCz0iSzaw	294	robot	label	3	label robot	10	5	1.336391e+03	response	1	.	small_robo_l.jpg	0	small_robo_l.jpg	40	panel1	1_146_1	html.Screen	modern	4.796419e+05	4.796371e+05	4.782840e+05	4.782858e+05	4.783007e+05	4.796513e+05	2021-05-07T09:07:52.872Z	.	
1	R_1mVPCuFCz0iSzaw	295	robot	label	3	label robot	10	5	2.329468e+03	completion	1	.	small_robo_l.jpg	.	small_robo_l.jpg	40	Trial Sequence	1_146	flow.Sequence	modern	4.796421e+05	4.796371e+05	4.772910e+05	4.772907e+05	4.773076e+05	4.796513e+05	2021-05-07T09:07:52.872Z	.	
1	R_1mVPCuFCz0iSzaw	296	plant	balloon	2	balloon plant	4	4	1.670127e+03	response	1	.	potted_plant_b.jpg	0	potted_plant_b.jpg	31	panel1	1_147_1	html.Screen	wonderful	4.823254e+05	4.823219e+05	4.806351e+05	4.806359e+05	4.806518e+05	4.823358e+05	2021-05-07T09:07:55.555Z	.	
1	R_1mVPCuFCz0iSzaw	297	plant	balloon	2	balloon plant	4	4	2.670567e+03	completion	1	.	potted_plant_b.jpg	.	potted_plant_b.jpg	31	Trial Sequence	1_147	flow.Sequence	wonderful	4.823256e+05	4.823219e+05	4.796346e+05	4.796422e+05	4.796513e+05	4.823358e+05	2021-05-07T09:07:55.555Z	.	
1	R_1mVPCuFCz0iSzaw	298	robot	balloon	2	balloon robot	5	5	2.094618e+03	response	1	.	nao_robo_b.jpg	1	nao_robo_b.jpg	29	panel1	1_148_1	html.Screen	cool	4.854342e+05	4.854309e+05	4.833196e+05	4.833206e+05	4.833363e+05	4.854372e+05	2021-05-07T09:07:58.664Z	.	
1	R_1mVPCuFCz0iSzaw	299	robot	balloon	2	balloon robot	5	5	3.095058e+03	completion	1	.	nao_robo_b.jpg	.	nao_robo_b.jpg	29	Trial Sequence	1_148	flow.Sequence	cool	4.854344e+05	4.854309e+05	4.823192e+05	4.823257e+05	4.823358e+05	4.854372e+05	2021-05-07T09:07:58.664Z	.	
1	R_1mVPCuFCz0iSzaw	300	.	.	.	.	.	.	4.590675e+05	completion	.	.	.	.	.	.	Trial	1	flow.Loop	.	4.854346e+05	4.854309e+05	2.634672e+04	2.635048e+04	2.636340e+04	4.854372e+05	2021-05-07T09:07:58.664Z	.	
1	R_1mVPCuFCz0iSzaw	301	.	.	.	.	.	.	4.848146e+05	completion	.	.	.	.	.	.	root		flow.Sequence	.	4.855223e+05	4.855206e+05	6.892580e+02	6.979200e+02	7.059320e+02	4.855539e+05	2021-05-07T09:07:58.752Z	.	
2	R_1IaPgSutFkVTTd4	1	.	.	.	.	.	.	1.363035e+04	response	.	.	.	continue	.	.	Intro	0	html.Screen	.	1.534389e+04	1.534206e+04	1.607564e+03	1.726095e+03	1.711712e+03	1.535752e+04	2021-05-07T09:06:38.037Z	.	
2	R_1IaPgSutFkVTTd4	2	human	label	3	label human	7	2	2.655365e+03	response	1	.	buisness_man_l.jpg	1	buisness_man_l.jpg	10	panel1	1_0_1	html.Screen	handsome	1.901342e+04	1.901295e+04	1.633680e+04	1.633739e+04	1.635758e+04	1.902424e+04	2021-05-07T09:06:41.706Z	.	
2	R_1IaPgSutFkVTTd4	3	human	label	3	label human	7	2	3.655428e+03	completion	1	.	buisness_man_l.jpg	.	buisness_man_l.jpg	10	Trial Sequence	1_0	flow.Sequence	handsome	1.901364e+04	1.901295e+04	1.533677e+04	1.534405e+04	1.535752e+04	1.902424e+04	2021-05-07T09:06:41.707Z	.	
2	R_1IaPgSutFkVTTd4	4	human	balloon	2	balloon human	2	2	2.395897e+03	response	1	.	buisness_man_b.jpg	1	buisness_man_b.jpg	10	panel1	1_1_1	html.Screen	handsome	2.242057e+04	2.242016e+04	2.000346e+04	2.000395e+04	2.002426e+04	2.244096e+04	2021-05-07T09:06:45.114Z	.	
2	R_1IaPgSutFkVTTd4	5	human	balloon	2	balloon human	2	2	3.395924e+03	completion	1	.	buisness_man_b.jpg	.	buisness_man_b.jpg	10	Trial Sequence	1_1	flow.Sequence	handsome	2.242070e+04	2.242016e+04	1.900338e+04	1.901372e+04	1.902424e+04	2.244096e+04	2021-05-07T09:06:45.114Z	.	
2	R_1IaPgSutFkVTTd4	6	object	plain	1	plain object	13	3	1.427894e+03	response	1	.	telephone.jpg	1	telephone.jpg	45	panel1	1_2_1	html.Screen	old	2.486931e+04	2.486883e+04	2.342013e+04	2.342062e+04	2.344094e+04	2.487844e+04	2021-05-07T09:06:47.562Z	.	
2	R_1IaPgSutFkVTTd4	7	object	plain	1	plain object	13	3	2.427874e+03	completion	1	.	telephone.jpg	.	telephone.jpg	45	Trial Sequence	1_2	flow.Sequence	old	2.486943e+04	2.486883e+04	2.242007e+04	2.242077e+04	2.244096e+04	2.487844e+04	2021-05-07T09:06:47.562Z	.	
2	R_1IaPgSutFkVTTd4	8	filler	filler	4	filler	16	6	3.578393e+03	response	1	.	filler3.jpg	1	filler3.jpg	47	panel1	1_3_1	html.Screen	filler	2.945720e+04	2.945683e+04	2.585763e+04	2.585808e+04	2.587843e+04	2.946171e+04	2021-05-07T09:06:52.150Z	.	
2	R_1IaPgSutFkVTTd4	9	filler	filler	4	filler	16	6	4.578382e+03	completion	1	.	filler3.jpg	.	filler3.jpg	47	Trial Sequence	1_3	flow.Sequence	filler	2.945733e+04	2.945683e+04	2.485760e+04	2.486950e+04	2.487844e+04	2.946171e+04	2021-05-07T09:06:52.150Z	.	
2	R_1IaPgSutFkVTTd4	10	plant	plain	1	plain plant	14	4	2.701492e+03	response	1	.	potted_plant.jpg	0	potted_plant.jpg	31	panel1	1_4_1	html.Screen	wonderful	3.316364e+04	3.316320e+04	3.044088e+04	3.044122e+04	3.046171e+04	3.317007e+04	2021-05-07T09:06:55.857Z	.	
2	R_1IaPgSutFkVTTd4	11	plant	plain	1	plain plant	14	4	3.701486e+03	completion	1	.	potted_plant.jpg	.	potted_plant.jpg	31	Trial Sequence	1_4	flow.Sequence	wonderful	3.316376e+04	3.316320e+04	2.944087e+04	2.945740e+04	2.946171e+04	3.317007e+04	2021-05-07T09:06:55.857Z	.	
2	R_1IaPgSutFkVTTd4	12	object	label	3	label object	8	3	2.004308e+03	response	1	.	bank_l.jpg	1	bank_l.jpg	6	panel1	1_5_1	html.Screen	ordinary	3.617484e+04	3.617440e+04	3.414931e+04	3.414977e+04	3.417010e+04	3.619095e+04	2021-05-07T09:06:58.868Z	.	
2	R_1IaPgSutFkVTTd4	13	object	label	3	label object	8	3	3.004331e+03	completion	1	.	bank_l.jpg	.	bank_l.jpg	6	Trial Sequence	1_5	flow.Sequence	ordinary	3.617496e+04	3.617440e+04	3.314924e+04	3.316384e+04	3.317007e+04	3.619095e+04	2021-05-07T09:06:58.868Z	.	
2	R_1IaPgSutFkVTTd4	14	animal	label	3	label animal	6	1	1.785673e+03	response	1	.	crab_l.jpg	1	crab_l.jpg	19	panel1	1_6_1	html.Screen	small	3.897696e+04	3.897661e+04	3.717014e+04	3.717060e+04	3.719094e+04	3.898254e+04	2021-05-07T09:07:01.670Z	.	
2	R_1IaPgSutFkVTTd4	15	animal	label	3	label animal	6	1	2.785664e+03	completion	1	.	crab_l.jpg	.	crab_l.jpg	19	Trial Sequence	1_6	flow.Sequence	small	3.897709e+04	3.897661e+04	3.617011e+04	3.617503e+04	3.619095e+04	3.898254e+04	2021-05-07T09:07:01.670Z	.	
2	R_1IaPgSutFkVTTd4	16	human	balloon	2	balloon human	2	2	2.113360e+03	response	1	.	small_boy_b.jpg	1	small_boy_b.jpg	39	panel1	1_7_1	html.Screen	ordinairy	4.209627e+04	4.209590e+04	3.996171e+04	3.996203e+04	3.998254e+04	4.210754e+04	2021-05-07T09:07:04.789Z	.	
2	R_1IaPgSutFkVTTd4	17	human	balloon	2	balloon human	2	2	3.113355e+03	completion	1	.	small_boy_b.jpg	.	small_boy_b.jpg	39	Trial Sequence	1_7	flow.Sequence	ordinairy	4.209638e+04	4.209590e+04	3.896176e+04	3.897715e+04	3.898254e+04	4.210754e+04	2021-05-07T09:07:04.789Z	.	
2	R_1IaPgSutFkVTTd4	18	animal	plain	1	plain animal	11	1	1.497592e+03	response	1	.	crab.jpg	1	crab.jpg	19	panel1	1_8_1	html.Screen	small	4.460562e+04	4.460519e+04	4.308681e+04	4.308735e+04	4.310760e+04	4.460754e+04	2021-05-07T09:07:07.299Z	.	
2	R_1IaPgSutFkVTTd4	19	animal	plain	1	plain animal	11	1	2.497651e+03	completion	1	.	crab.jpg	.	crab.jpg	19	Trial Sequence	1_8	flow.Sequence	small	4.460574e+04	4.460519e+04	4.208676e+04	4.209644e+04	4.210754e+04	4.460754e+04	2021-05-07T09:07:07.299Z	.	
2	R_1IaPgSutFkVTTd4	20	animal	balloon	2	balloon animal	1	1	1.954379e+03	response	1	.	pinguin_b.jpg	0	pinguin_b.jpg	30	panel1	1_9_1	html.Screen	sweet	4.756238e+04	4.756197e+04	4.558681e+04	4.558725e+04	4.560760e+04	4.756588e+04	2021-05-07T09:07:10.255Z	.	
2	R_1IaPgSutFkVTTd4	21	animal	balloon	2	balloon animal	1	1	2.954433e+03	completion	1	.	pinguin_b.jpg	.	pinguin_b.jpg	30	Trial Sequence	1_9	flow.Sequence	sweet	4.756250e+04	4.756197e+04	4.458677e+04	4.460580e+04	4.460754e+04	4.756588e+04	2021-05-07T09:07:10.256Z	.	
2	R_1IaPgSutFkVTTd4	22	robot	label	3	label robot	10	5	2.103809e+03	response	1	.	nao_robo_l.jpg	0	nao_robo_l.jpg	29	panel1	1_10_1	html.Screen	cool	5.067015e+04	5.066975e+04	4.854514e+04	4.854560e+04	4.856594e+04	5.069094e+04	2021-05-07T09:07:13.363Z	.	
2	R_1IaPgSutFkVTTd4	23	robot	label	3	label robot	10	5	3.103875e+03	completion	1	.	nao_robo_l.jpg	.	nao_robo_l.jpg	29	Trial Sequence	1_10	flow.Sequence	cool	5.067027e+04	5.066975e+04	4.754506e+04	4.756257e+04	4.756588e+04	5.069094e+04	2021-05-07T09:07:13.363Z	.	
2	R_1IaPgSutFkVTTd4	24	object	balloon	2	balloon object	3	3	1.350423e+03	response	1	.	telephone_b.jpg	1	telephone_b.jpg	45	panel1	1_11_1	html.Screen	old	5.304168e+04	5.304132e+04	5.167002e+04	5.167154e+04	5.169090e+04	5.304507e+04	2021-05-07T09:07:15.735Z	.	
2	R_1IaPgSutFkVTTd4	25	object	balloon	2	balloon object	3	3	2.350382e+03	completion	1	.	telephone_b.jpg	.	telephone_b.jpg	45	Trial Sequence	1_11	flow.Sequence	old	5.304182e+04	5.304132e+04	5.067009e+04	5.067033e+04	5.069094e+04	5.304507e+04	2021-05-07T09:07:15.735Z	.	
2	R_1IaPgSutFkVTTd4	26	plant	label	3	label plant	9	4	2.611378e+03	response	1	.	mushrooms_l.jpg	0	mushrooms_l.jpg	28	panel1	1_12_1	html.Screen	odd	5.665684e+04	5.665648e+04	5.402431e+04	5.402474e+04	5.404510e+04	5.667012e+04	2021-05-07T09:07:19.350Z	.	
2	R_1IaPgSutFkVTTd4	27	plant	label	3	label plant	9	4	3.611405e+03	completion	1	.	mushrooms_l.jpg	.	mushrooms_l.jpg	28	Trial Sequence	1_12	flow.Sequence	odd	5.665696e+04	5.665648e+04	5.302427e+04	5.304188e+04	5.304507e+04	5.667012e+04	2021-05-07T09:07:19.350Z	.	
2	R_1IaPgSutFkVTTd4	28	plant	label	3	label plant	9	4	3.730687e+03	response	1	.	potted_plant_l.jpg	0	potted_plant_l.jpg	31	panel1	1_13_1	html.Screen	wonderful	6.140118e+04	6.140080e+04	5.764931e+04	5.764974e+04	5.767011e+04	6.142011e+04	2021-05-07T09:07:24.082Z	.	
2	R_1IaPgSutFkVTTd4	29	plant	label	3	label plant	9	4	4.730677e+03	completion	1	.	potted_plant_l.jpg	.	potted_plant_l.jpg	31	Trial Sequence	1_13	flow.Sequence	wonderful	6.140130e+04	6.140080e+04	5.664921e+04	5.665703e+04	5.667012e+04	6.142011e+04	2021-05-07T09:07:24.082Z	.	
2	R_1IaPgSutFkVTTd4	30	robot	label	3	label robot	10	5	4.578341e+03	response	1	.	square_robo_l.jpg	0	square_robo_l.jpg	43	panel1	1_14_1	html.Screen	okay	6.699883e+04	6.699844e+04	6.239931e+04	6.239979e+04	6.242010e+04	6.700343e+04	2021-05-07T09:07:29.679Z	.	
2	R_1IaPgSutFkVTTd4	31	robot	label	3	label robot	10	5	5.578336e+03	completion	1	.	square_robo_l.jpg	.	square_robo_l.jpg	43	Trial Sequence	1_14	flow.Sequence	okay	6.699895e+04	6.699844e+04	6.139925e+04	6.140136e+04	6.142011e+04	6.700343e+04	2021-05-07T09:07:29.680Z	.	
2	R_1IaPgSutFkVTTd4	32	object	plain	1	plain object	13	3	1.841683e+03	response	1	.	bank.jpg	1	bank.jpg	6	panel1	1_15_1	html.Screen	ordinary	6.984550e+04	6.984514e+04	6.798265e+04	6.798309e+04	6.800346e+04	6.985764e+04	2021-05-07T09:07:32.526Z	.	
2	R_1IaPgSutFkVTTd4	33	object	plain	1	plain object	13	3	2.841713e+03	completion	1	.	bank.jpg	.	bank.jpg	6	Trial Sequence	1_15	flow.Sequence	ordinary	6.984564e+04	6.984514e+04	6.698251e+04	6.699901e+04	6.700343e+04	6.985764e+04	2021-05-07T09:07:32.526Z	.	
2	R_1IaPgSutFkVTTd4	34	plant	balloon	2	balloon plant	4	4	1.932338e+03	response	1	.	coral_b.jpg	0	coral_b.jpg	18	panel1	1_16_1	html.Screen	awesome	7.279028e+04	7.278995e+04	7.083682e+04	7.083727e+04	7.085761e+04	7.279506e+04	2021-05-07T09:07:35.471Z	.	
2	R_1IaPgSutFkVTTd4	35	plant	balloon	2	balloon plant	4	4	2.932313e+03	completion	1	.	coral_b.jpg	.	coral_b.jpg	18	Trial Sequence	1_16	flow.Sequence	awesome	7.279040e+04	7.278995e+04	6.983678e+04	6.984571e+04	6.985764e+04	7.279506e+04	2021-05-07T09:07:35.471Z	.	
2	R_1IaPgSutFkVTTd4	36	animal	plain	1	plain animal	11	1	2.164889e+03	response	1	.	rat.jpg	1	rat.jpg	32	panel1	1_17_1	html.Screen	solid	7.596029e+04	7.595995e+04	7.377422e+04	7.377459e+04	7.379506e+04	7.599315e+04	2021-05-07T09:07:38.641Z	.	
2	R_1IaPgSutFkVTTd4	37	animal	plain	1	plain animal	11	1	3.164886e+03	completion	1	.	rat.jpg	.	rat.jpg	32	Trial Sequence	1_17	flow.Sequence	solid	7.596041e+04	7.595995e+04	7.277429e+04	7.279046e+04	7.279506e+04	7.599315e+04	2021-05-07T09:07:38.641Z	.	
2	R_1IaPgSutFkVTTd4	38	robot	plain	1	plain robot	15	5	2.257627e+03	response	1	.	star_track.jpg	0	star_track.jpg	44	panel1	1_18_1	html.Screen	fair	7.926138e+04	7.926103e+04	7.698257e+04	7.698299e+04	7.700340e+04	7.927429e+04	2021-05-07T09:07:41.942Z	.	
2	R_1IaPgSutFkVTTd4	39	robot	plain	1	plain robot	15	5	3.267879e+03	completion	1	.	star_track.jpg	.	star_track.jpg	44	Trial Sequence	1_18	flow.Sequence	fair	7.926153e+04	7.926103e+04	7.594088e+04	7.596047e+04	7.599315e+04	7.927429e+04	2021-05-07T09:07:41.942Z	.	
2	R_1IaPgSutFkVTTd4	40	human	balloon	2	balloon human	2	2	3.890767e+03	response	1	.	model_b.jpg	1	model_b.jpg	26	panel1	1_19_1	html.Screen	okay	8.416538e+04	8.416503e+04	8.025349e+04	8.025395e+04	8.027427e+04	8.417009e+04	2021-05-07T09:07:46.846Z	.	
2	R_1IaPgSutFkVTTd4	41	human	balloon	2	balloon human	2	2	4.890744e+03	completion	1	.	model_b.jpg	.	model_b.jpg	26	Trial Sequence	1_19	flow.Sequence	okay	8.416553e+04	8.416503e+04	7.925342e+04	7.926159e+04	7.927429e+04	8.417009e+04	2021-05-07T09:07:46.846Z	.	
2	R_1IaPgSutFkVTTd4	42	object	label	3	label object	8	3	2.792281e+03	response	1	.	anker_l.jpg	1	anker_l.jpg	1	panel1	1_20_1	html.Screen	solid	8.796275e+04	8.796239e+04	8.514932e+04	8.514977e+04	8.517011e+04	8.798263e+04	2021-05-07T09:07:50.643Z	.	
2	R_1IaPgSutFkVTTd4	43	object	label	3	label object	8	3	3.792307e+03	completion	1	.	anker_l.jpg	.	anker_l.jpg	1	Trial Sequence	1_20	flow.Sequence	solid	8.796288e+04	8.796239e+04	8.414923e+04	8.416560e+04	8.417009e+04	8.798263e+04	2021-05-07T09:07:50.643Z	.	
2	R_1IaPgSutFkVTTd4	44	plant	plain	1	plain plant	14	4	1.175548e+03	response	1	.	coral.jpg	0	coral.jpg	18	panel1	1_21_1	html.Screen	awesome	9.015853e+04	9.015817e+04	8.896182e+04	8.896227e+04	8.898263e+04	9.017017e+04	2021-05-07T09:07:52.839Z	.	
2	R_1IaPgSutFkVTTd4	45	plant	plain	1	plain plant	14	4	2.175545e+03	completion	1	.	coral.jpg	.	coral.jpg	18	Trial Sequence	1_21	flow.Sequence	awesome	9.015869e+04	9.015817e+04	8.796177e+04	8.796299e+04	8.798263e+04	9.017017e+04	2021-05-07T09:07:52.839Z	.	
2	R_1IaPgSutFkVTTd4	46	robot	label	3	label robot	10	5	2.178051e+03	response	1	.	broken_robo_l.jpg	0	broken_robo_l.jpg	9	panel1	1_22_1	html.Screen	odd	9.334849e+04	9.334814e+04	9.114932e+04	9.114978e+04	9.117009e+04	9.335763e+04	2021-05-07T09:07:56.029Z	.	
2	R_1IaPgSutFkVTTd4	47	robot	label	3	label robot	10	5	3.177978e+03	completion	1	.	broken_robo_l.jpg	.	broken_robo_l.jpg	9	Trial Sequence	1_22	flow.Sequence	odd	9.334865e+04	9.334814e+04	9.014929e+04	9.015875e+04	9.017017e+04	9.335763e+04	2021-05-07T09:07:56.029Z	.	
2	R_1IaPgSutFkVTTd4	48	human	label	3	label human	7	2	1.835823e+03	response	1	.	skater_l.jpg	0	skater_l.jpg	38	panel1	1_23_1	html.Screen	impressive	9.619382e+04	9.619345e+04	9.433682e+04	9.433727e+04	9.435763e+04	9.621179e+04	2021-05-07T09:07:58.874Z	.	
2	R_1IaPgSutFkVTTd4	49	human	label	3	label human	7	2	2.835824e+03	completion	1	.	skater_l.jpg	.	skater_l.jpg	38	Trial Sequence	1_23	flow.Sequence	impressive	9.619396e+04	9.619345e+04	9.333676e+04	9.334871e+04	9.335763e+04	9.621179e+04	2021-05-07T09:07:58.875Z	.	
2	R_1IaPgSutFkVTTd4	50	human	balloon	2	balloon human	2	2	2.300725e+03	response	1	.	hula_girl_b.jpg	1	hula_girl_b.jpg	23	panel1	1_24_1	html.Screen	plain	9.951288e+04	9.951252e+04	9.719098e+04	9.719144e+04	9.721179e+04	9.952429e+04	2021-05-07T09:08:02.193Z	.	
2	R_1IaPgSutFkVTTd4	51	human	balloon	2	balloon human	2	2	3.300735e+03	completion	1	.	hula_girl_b.jpg	.	hula_girl_b.jpg	23	Trial Sequence	1_24	flow.Sequence	plain	9.951302e+04	9.951252e+04	9.619091e+04	9.619402e+04	9.621179e+04	9.952429e+04	2021-05-07T09:08:02.194Z	.	
2	R_1IaPgSutFkVTTd4	52	object	plain	1	plain object	13	3	1.247469e+03	response	1	.	anker.jpg	1	anker.jpg	1	panel1	1_25_1	html.Screen	solid	1.017721e+05	1.017718e+05	1.005035e+05	1.005039e+05	1.005243e+05	1.017743e+05	2021-05-07T09:08:04.453Z	.	
2	R_1IaPgSutFkVTTd4	53	object	plain	1	plain object	13	3	2.247467e+03	completion	1	.	anker.jpg	.	anker.jpg	1	Trial Sequence	1_25	flow.Sequence	solid	1.017722e+05	1.017718e+05	9.950344e+04	9.951308e+04	9.952429e+04	1.017743e+05	2021-05-07T09:08:04.453Z	.	
2	R_1IaPgSutFkVTTd4	54	human	plain	1	plain human	12	2	1.226029e+03	response	1	.	small_boy .jpg	0	small_boy .jpg	39	panel1	1_26_1	html.Screen	ordinary	1.040007e+05	1.040003e+05	1.027535e+05	1.027539e+05	1.027743e+05	1.040035e+05	2021-05-07T09:08:06.681Z	.	
2	R_1IaPgSutFkVTTd4	55	human	plain	1	plain human	12	2	2.226062e+03	completion	1	.	small_boy .jpg	.	small_boy .jpg	39	Trial Sequence	1_26	flow.Sequence	ordinary	1.040008e+05	1.040003e+05	1.017535e+05	1.017723e+05	1.017743e+05	1.040035e+05	2021-05-07T09:08:06.681Z	.	
2	R_1IaPgSutFkVTTd4	56	human	balloon	2	balloon human	2	2	1.550954e+03	response	1	.	skater_b.jpg	0	skater_b.jpg	38	panel1	1_27_1	html.Screen	impressive	1.065548e+05	1.065544e+05	1.049827e+05	1.049830e+05	1.050035e+05	1.065659e+05	2021-05-07T09:08:09.235Z	.	
2	R_1IaPgSutFkVTTd4	57	human	balloon	2	balloon human	2	2	2.550941e+03	completion	1	.	skater_b.jpg	.	skater_b.jpg	38	Trial Sequence	1_27	flow.Sequence	impressive	1.065549e+05	1.065544e+05	1.039826e+05	1.040009e+05	1.040035e+05	1.065659e+05	2021-05-07T09:08:09.235Z	.	
2	R_1IaPgSutFkVTTd4	58	robot	balloon	2	balloon robot	5	5	1.170711e+03	response	1	.	asimov_b.jpg	0	asimov_b.jpg	3	panel1	1_28_1	html.Screen	handsome	1.087370e+05	1.087367e+05	1.075452e+05	1.075455e+05	1.075660e+05	1.087534e+05	2021-05-07T09:08:11.418Z	.	
2	R_1IaPgSutFkVTTd4	59	robot	balloon	2	balloon robot	5	5	2.170766e+03	completion	1	.	asimov_b.jpg	.	asimov_b.jpg	3	Trial Sequence	1_28	flow.Sequence	handsome	1.087371e+05	1.087367e+05	1.065451e+05	1.065550e+05	1.065659e+05	1.087534e+05	2021-05-07T09:08:11.418Z	.	
2	R_1IaPgSutFkVTTd4	60	robot	balloon	2	balloon robot	5	5	1.010540e+03	response	1	.	nao_robo_b.jpg	0	nao_robo_b.jpg	29	panel1	1_29_1	html.Screen	cool	1.107643e+05	1.107640e+05	1.097327e+05	1.097331e+05	1.097534e+05	1.107743e+05	2021-05-07T09:08:13.445Z	.	
2	R_1IaPgSutFkVTTd4	61	robot	balloon	2	balloon robot	5	5	2.010584e+03	completion	1	.	nao_robo_b.jpg	.	nao_robo_b.jpg	29	Trial Sequence	1_29	flow.Sequence	cool	1.107645e+05	1.107640e+05	1.087326e+05	1.087372e+05	1.087534e+05	1.107743e+05	2021-05-07T09:08:13.445Z	.	
2	R_1IaPgSutFkVTTd4	62	animal	label	3	label animal	6	1	3.219007e+03	response	1	.	butterfly_l.jpg	0	butterfly_l.jpg	12	panel1	1_30_1	html.Screen	radient	1.149937e+05	1.149933e+05	1.117535e+05	1.117540e+05	1.117743e+05	1.150034e+05	2021-05-07T09:08:17.674Z	.	
2	R_1IaPgSutFkVTTd4	63	animal	label	3	label animal	6	1	4.219010e+03	completion	1	.	butterfly_l.jpg	.	butterfly_l.jpg	12	Trial Sequence	1_30	flow.Sequence	radient	1.149938e+05	1.149933e+05	1.107535e+05	1.107645e+05	1.107743e+05	1.150034e+05	2021-05-07T09:08:17.674Z	.	
2	R_1IaPgSutFkVTTd4	64	robot	label	3	label robot	10	5	9.227740e+02	response	1	.	rolling_robo_l.jpg	0	rolling_robo_l.jpg	33	panel1	1_31_1	html.Screen	huge	1.169266e+05	1.169262e+05	1.159827e+05	1.159830e+05	1.160035e+05	1.169410e+05	2021-05-07T09:08:19.607Z	.	
2	R_1IaPgSutFkVTTd4	65	robot	label	3	label robot	10	5	1.922806e+03	completion	1	.	rolling_robo_l.jpg	.	rolling_robo_l.jpg	33	Trial Sequence	1_31	flow.Sequence	huge	1.169267e+05	1.169262e+05	1.149826e+05	1.149939e+05	1.150034e+05	1.169410e+05	2021-05-07T09:08:19.607Z	.	
2	R_1IaPgSutFkVTTd4	66	object	label	3	label object	8	3	2.102220e+02	response	1	.	bicycle_l.jpg	0	bicycle_l.jpg	7	panel1	1_32_1	html.Screen	awesome	1.181515e+05	1.181512e+05	1.179202e+05	1.179207e+05	1.179410e+05	1.181701e+05	2021-05-07T09:08:20.832Z	.	
2	R_1IaPgSutFkVTTd4	67	object	label	3	label object	8	3	1.210206e+03	completion	1	.	bicycle_l.jpg	.	bicycle_l.jpg	7	Trial Sequence	1_32	flow.Sequence	awesome	1.181517e+05	1.181512e+05	1.169201e+05	1.169268e+05	1.169410e+05	1.181701e+05	2021-05-07T09:08:20.832Z	.	
2	R_1IaPgSutFkVTTd4	68	object	plain	1	plain object	13	3	7.326310e+02	response	1	.	sail.jpg	1	sail.jpg	35	panel1	1_33_1	html.Screen	radient	1.199031e+05	1.199028e+05	1.191493e+05	1.191498e+05	1.191701e+05	1.199201e+05	2021-05-07T09:08:22.584Z	.	
2	R_1IaPgSutFkVTTd4	69	object	plain	1	plain object	13	3	1.732671e+03	completion	1	.	sail.jpg	.	sail.jpg	35	Trial Sequence	1_33	flow.Sequence	radient	1.199032e+05	1.199028e+05	1.181493e+05	1.181517e+05	1.181701e+05	1.199201e+05	2021-05-07T09:08:22.584Z	.	
2	R_1IaPgSutFkVTTd4	70	animal	balloon	2	balloon animal	1	1	2.932640e+02	response	1	.	butterfly_b.jpg	0	butterfly_b.jpg	12	panel1	1_34_1	html.Screen	radient	1.212137e+05	1.212134e+05	1.208993e+05	1.208998e+05	1.209201e+05	1.212326e+05	2021-05-07T09:08:23.894Z	.	
2	R_1IaPgSutFkVTTd4	71	animal	balloon	2	balloon animal	1	1	1.293217e+03	completion	1	.	butterfly_b.jpg	.	butterfly_b.jpg	12	Trial Sequence	1_34	flow.Sequence	radient	1.212138e+05	1.212134e+05	1.198993e+05	1.199033e+05	1.199201e+05	1.212326e+05	2021-05-07T09:08:23.894Z	.	
2	R_1IaPgSutFkVTTd4	72	robot	plain	1	plain robot	15	5	1.129380e+02	response	1	.	astronaut_robo.jpg	1	astronaut_robo.jpg	4	panel1	1_35_1	html.Screen	wonderful	1.223459e+05	1.223455e+05	1.222118e+05	1.222123e+05	1.222326e+05	1.223577e+05	2021-05-07T09:08:25.039Z	.	
2	R_1IaPgSutFkVTTd4	73	robot	plain	1	plain robot	15	5	1.112915e+03	completion	1	.	astronaut_robo.jpg	.	astronaut_robo.jpg	4	Trial Sequence	1_35	flow.Sequence	wonderful	1.223460e+05	1.223455e+05	1.212118e+05	1.212139e+05	1.212326e+05	1.223577e+05	2021-05-07T09:08:25.040Z	.	
2	R_1IaPgSutFkVTTd4	74	object	balloon	2	balloon object	3	3	2.801300e+01	response	1	.	bank_b.jpg	1	bank_b.jpg	6	panel1	1_36_1	html.Screen	ordinary	1.233860e+05	1.233856e+05	1.233368e+05	1.233373e+05	1.233576e+05	1.233993e+05	2021-05-07T09:08:26.080Z	.	
2	R_1IaPgSutFkVTTd4	75	object	balloon	2	balloon object	3	3	1.027975e+03	completion	1	.	bank_b.jpg	.	bank_b.jpg	6	Trial Sequence	1_36	flow.Sequence	ordinary	1.233862e+05	1.233856e+05	1.223368e+05	1.223461e+05	1.223577e+05	1.233993e+05	2021-05-07T09:08:26.080Z	.	
2	R_1IaPgSutFkVTTd4	76	robot	plain	1	plain robot	15	5	6.927130e+02	response	1	.	industrial_robo.jpg	1	industrial_robo.jpg	24	panel1	1_37_1	html.Screen	impressive	1.250924e+05	1.250920e+05	1.243785e+05	1.243789e+05	1.243993e+05	1.251076e+05	2021-05-07T09:08:27.786Z	.	
2	R_1IaPgSutFkVTTd4	77	robot	plain	1	plain robot	15	5	1.692703e+03	completion	1	.	industrial_robo.jpg	.	industrial_robo.jpg	24	Trial Sequence	1_37	flow.Sequence	impressive	1.250925e+05	1.250920e+05	1.233785e+05	1.233863e+05	1.233993e+05	1.251076e+05	2021-05-07T09:08:27.786Z	.	
2	R_1IaPgSutFkVTTd4	78	robot	label	3	label robot	10	5	5.312420e+02	response	1	.	small_robo_l.jpg	0	small_robo_l.jpg	40	panel1	1_38_1	html.Screen	modern	1.266392e+05	1.266389e+05	1.260869e+05	1.260873e+05	1.261076e+05	1.266493e+05	2021-05-07T09:08:29.333Z	.	
2	R_1IaPgSutFkVTTd4	79	robot	label	3	label robot	10	5	1.531244e+03	completion	1	.	small_robo_l.jpg	.	small_robo_l.jpg	40	Trial Sequence	1_38	flow.Sequence	modern	1.266394e+05	1.266389e+05	1.250868e+05	1.250926e+05	1.251076e+05	1.266493e+05	2021-05-07T09:08:29.333Z	.	
2	R_1IaPgSutFkVTTd4	80	robot	plain	1	plain robot	15	5	2.889910e+02	response	1	.	whole_robo.jpg	0	whole_robo.jpg	47	panel1	1_39_1	html.Screen	extraordinairy	1.279386e+05	1.279383e+05	1.276285e+05	1.276290e+05	1.276493e+05	1.279409e+05	2021-05-07T09:08:30.632Z	.	
2	R_1IaPgSutFkVTTd4	81	robot	plain	1	plain robot	15	5	1.289015e+03	completion	1	.	whole_robo.jpg	.	whole_robo.jpg	47	Trial Sequence	1_39	flow.Sequence	extraordinairy	1.279388e+05	1.279383e+05	1.266285e+05	1.266395e+05	1.266493e+05	1.279409e+05	2021-05-07T09:08:30.632Z	.	
2	R_1IaPgSutFkVTTd4	82	animal	balloon	2	balloon animal	1	1	2.591220e+02	response	1	.	cat_b.jpg	0	cat_b.jpg	15	panel1	1_40_1	html.Screen	cute	1.292005e+05	1.292001e+05	1.289202e+05	1.289206e+05	1.289410e+05	1.292118e+05	2021-05-07T09:08:31.894Z	.	
2	R_1IaPgSutFkVTTd4	83	animal	balloon	2	balloon animal	1	1	1.259175e+03	completion	1	.	cat_b.jpg	.	cat_b.jpg	15	Trial Sequence	1_40	flow.Sequence	cute	1.292006e+05	1.292001e+05	1.279202e+05	1.279388e+05	1.279409e+05	1.292118e+05	2021-05-07T09:08:31.894Z	.	
2	R_1IaPgSutFkVTTd4	84	animal	label	3	label animal	6	1	1.668860e+02	response	1	.	camel_l.jpg	0	camel_l.jpg	14	panel1	1_41_1	html.Screen	extraordinairy	1.303790e+05	1.303787e+05	1.301910e+05	1.301915e+05	1.302118e+05	1.303993e+05	2021-05-07T09:08:33.073Z	.	
2	R_1IaPgSutFkVTTd4	85	animal	label	3	label animal	6	1	1.166922e+03	completion	1	.	camel_l.jpg	.	camel_l.jpg	14	Trial Sequence	1_41	flow.Sequence	extraordinairy	1.303792e+05	1.303787e+05	1.291910e+05	1.292007e+05	1.292118e+05	1.303993e+05	2021-05-07T09:08:33.073Z	.	
